"Time (s)","Linear Acceleration x (m/s^2)","Linear Acceleration y (m/s^2)","Linear Acceleration z (m/s^2)"
1.283788600E-2,1.080656052E-2,7.380962372E-3,8.847379684E-2
1.783387500E-2,9.342932701E-2,4.234313965E-4,3.863587379E-1
2.282986500E-2,1.547651291E-1,1.107835770E-2,7.402067184E-1
2.782585500E-2,2.515168190E-1,1.719474792E-3,1.084827423E0
3.282184400E-2,3.780720234E-1,-3.458786011E-2,1.359123230E0
3.781783400E-2,4.813803434E-1,-8.498287201E-2,1.463436127E0
4.281382300E-2,5.289640427E-1,-1.127543449E-1,1.416815758E0
4.780981300E-2,4.931279421E-1,-1.427612305E-1,1.316449165E0
5.280580300E-2,4.922838211E-1,-1.626601219E-1,1.173103333E0
5.780179200E-2,4.571454525E-1,-1.910457611E-1,9.147024155E-1
6.279778200E-2,3.322272301E-1,-2.010636330E-1,6.626472473E-1
6.779377100E-2,2.016583681E-1,-1.759142876E-1,3.714570999E-1
7.278976100E-2,9.872293472E-2,-1.525015831E-1,4.357051849E-2
7.778575000E-2,1.928949356E-2,-1.160988808E-1,-2.782287598E-1
8.278174000E-2,-5.336081982E-2,-3.459310532E-2,-5.755329132E-1
8.777773000E-2,-7.161259651E-2,5.046653748E-2,-8.796787262E-1
9.277371900E-2,-7.519853115E-2,1.132383347E-1,-1.120301723E0
9.776970900E-2,-6.515216827E-2,2.060623169E-1,-1.266131401E0
1.027656980E-1,-3.310477734E-2,2.827143669E-1,-1.277050018E0
1.077616880E-1,3.807878494E-2,3.170642853E-1,-1.245973587E0
1.127576780E-1,1.515666246E-1,3.159508705E-1,-1.165377617E0
1.177536670E-1,1.871103048E-1,2.624368668E-1,-1.087132454E0
1.227496570E-1,2.122963667E-1,2.087759972E-1,-9.876317978E-1
1.277456460E-1,1.631072760E-1,1.590442657E-1,-8.348975182E-1
1.327416360E-1,1.433043480E-1,1.264991760E-1,-7.039456367E-1
1.377376250E-1,1.061260700E-1,8.700275421E-2,-5.885806084E-1
1.427336150E-1,9.861183167E-2,6.793642044E-2,-4.413509369E-1
1.477296050E-1,1.154898405E-1,4.057168961E-2,-3.274383545E-1
1.527255940E-1,1.286661625E-1,-2.762508392E-2,-2.358808517E-1
1.577215840E-1,1.387552023E-1,-8.932685852E-2,-1.794404984E-1
1.627175730E-1,1.599091291E-1,-1.682310104E-1,-5.471038818E-2
1.677135630E-1,2.148027420E-1,-2.176966667E-1,1.690416336E-1
1.727095530E-1,2.516990900E-1,-2.624692917E-1,3.037900925E-1
1.777055420E-1,2.016243935E-1,-2.936902046E-1,3.617830276E-1
1.827015320E-1,1.042169333E-1,-3.026914597E-1,3.779611588E-1
1.876975210E-1,6.730484962E-2,-3.226351738E-1,3.440294266E-1
1.926935110E-1,7.965636253E-2,-3.110523224E-1,2.564010620E-1
1.976895000E-1,1.072599888E-1,-3.012232780E-1,1.488723755E-1
2.026854900E-1,9.820532799E-2,-2.881522179E-1,1.227474213E-2
2.076814800E-1,5.786573887E-2,-2.946991920E-1,-1.625385284E-1
2.126774690E-1,4.742789268E-2,-2.874498367E-1,-3.376398087E-1
2.176734590E-1,6.128895283E-2,-2.943348885E-1,-5.462403297E-1
2.226694480E-1,9.731173515E-3,-2.723245621E-1,-7.554230690E-1
2.276654380E-1,-4.558277130E-2,-2.730603218E-1,-9.095840454E-1
2.326614280E-1,-5.813384056E-2,-2.537136078E-1,-1.043017387E0
2.376574170E-1,-5.268335342E-2,-2.378578186E-1,-1.142457962E0
2.426534070E-1,-4.383277893E-2,-2.064390182E-1,-1.218226910E0
2.476493960E-1,-5.964851379E-2,-1.597571373E-1,-1.195778370E0
2.526453860E-1,-5.254113674E-2,-9.804344177E-2,-1.105182648E0
2.576413750E-1,-6.038868427E-2,-9.686803818E-2,-8.818178177E-1
2.626373650E-1,-5.436050892E-2,-1.085014343E-1,-5.793957710E-1
2.676333550E-1,-1.571345329E-2,-1.379170418E-1,-2.599043846E-1
2.726293440E-1,2.747786045E-2,-1.854257584E-1,3.949928284E-2
2.776253340E-1,8.035659790E-2,-1.994481087E-1,2.680406570E-1
2.826213230E-1,8.187735081E-2,-1.951975822E-1,4.415874481E-1
2.876173130E-1,3.761923313E-2,-1.779365540E-1,4.954881668E-1
2.926133030E-1,-1.414275169E-2,-1.668505669E-1,5.307178497E-1
2.976092920E-1,-8.287405968E-2,-1.523437500E-1,5.475387573E-1
3.026052820E-1,-9.765076637E-2,-1.016588211E-1,5.887470245E-1
3.076012710E-1,-7.330191135E-2,-2.021265030E-2,6.588020325E-1
3.125972610E-1,-2.926182747E-2,2.555131912E-2,6.866359711E-1
3.175932500E-1,-1.779091358E-2,-6.184577942E-3,6.304903030E-1
3.225892400E-1,-9.028983116E-2,-2.937173843E-2,5.057725906E-1
3.275852300E-1,-1.655886173E-1,-3.472137451E-2,3.417177200E-1
3.325812190E-1,-2.161886692E-1,-4.586601257E-2,1.715440750E-1
3.375772090E-1,-1.960389614E-1,-6.706190109E-2,-3.814888000E-2
3.425731980E-1,-1.349365711E-1,-7.417821884E-2,-2.777876854E-1
3.475691880E-1,-8.063745499E-2,-7.172822952E-2,-5.142560005E-1
3.525651780E-1,-4.707431793E-2,-4.052495956E-2,-6.865768433E-1
3.575611670E-1,-4.334402084E-2,-8.931636810E-3,-7.628803253E-1
3.625571570E-1,-3.134727478E-2,2.785396576E-2,-7.398853302E-1
3.675531460E-1,-5.385351181E-2,5.588245392E-2,-7.088880539E-1
3.725491360E-1,-4.891824722E-2,7.046508789E-2,-6.746435165E-1
3.775451250E-1,-1.645565033E-2,7.178497314E-2,-6.654157639E-1
3.825411150E-1,1.039958000E-2,8.358907700E-2,-5.909824371E-1
3.875371050E-1,6.027913094E-2,5.367326736E-2,-5.087814331E-1
3.925330940E-1,5.283856392E-2,1.087379456E-2,-3.431420326E-1
3.975290840E-1,8.852267265E-2,1.642465591E-2,-8.526563644E-2
4.025250730E-1,1.010673046E-1,4.559135437E-2,1.885480881E-1
4.075210630E-1,1.007516384E-1,3.127574921E-2,4.881610870E-1
4.125170530E-1,1.165676117E-1,6.813192368E-2,7.144346237E-1
4.175130420E-1,1.063137054E-1,7.954788208E-2,8.071823120E-1
4.225090320E-1,9.383487701E-2,7.981538773E-2,8.201704025E-1
4.275050730E-1,8.360242844E-2,7.365894318E-2,7.685575485E-1
4.325011150E-1,3.740215302E-2,7.075881958E-2,6.529245377E-1
4.374971570E-1,-3.080368042E-2,7.129716873E-2,4.973430634E-1
4.424931980E-1,-1.120495796E-1,7.553815842E-2,3.349847794E-1
4.474892400E-1,-1.877901554E-1,1.122341156E-1,1.655035019E-1
4.524852820E-1,-2.681434155E-1,1.435108185E-1,-3.038787842E-2
4.574813230E-1,-3.535068035E-1,1.745543480E-1,-3.854184151E-1
4.624773650E-1,-6.575222015E-1,2.312145233E-1,-2.201940536E0
4.674734070E-1,-9.898695946E-1,3.966007233E-1,-2.875796318E0
4.724694480E-1,-1.101616383E0,5.179991722E-1,-2.391714096E0
4.774654900E-1,-7.402226925E-1,4.760842323E-1,-1.415173531E0
4.824615320E-1,-1.221013069E-1,3.035602570E-1,-3.141088486E-1
4.874575730E-1,3.451507092E-1,1.801691055E-1,6.326770782E-1
4.924536150E-1,4.473741055E-1,2.227158546E-1,1.148788452E0
4.974496570E-1,2.794144154E-1,3.295826912E-1,1.149230003E0
5.024456980E-1,5.120754242E-3,3.817396164E-1,9.614405632E-1
5.074417400E-1,-2.950541973E-1,3.277096748E-1,7.906503677E-1
5.124377820E-1,-5.372428894E-1,2.682027817E-1,6.265487671E-1
5.174338230E-1,-6.519954205E-1,2.129096985E-1,5.586743355E-1
5.224298650E-1,-6.738607883E-1,1.899642944E-1,6.004433632E-1
5.274259070E-1,-5.701665878E-1,1.802058220E-1,6.275506020E-1
5.324219480E-1,-4.080266953E-1,2.123303413E-1,4.598302841E-1
5.374179900E-1,-2.916898727E-1,2.534060478E-1,1.178541183E-1
5.424140320E-1,-2.113344669E-1,2.949371338E-1,-4.829068184E-1
5.474100730E-1,-2.761814594E-1,3.191013336E-1,-1.084831715E0
5.524061150E-1,-4.146354198E-1,3.271665573E-1,-1.446994305E0
5.574021570E-1,-4.796061516E-1,3.386206627E-1,-1.567291260E0
5.623981980E-1,-4.863402843E-1,3.484063148E-1,-1.390859604E0
5.673942400E-1,-4.730942249E-1,3.417730331E-1,-1.081212044E0
5.723902820E-1,-4.584391117E-1,3.039479256E-1,-6.862697601E-1
5.773863230E-1,-3.749055862E-1,2.154393196E-1,-2.485814095E-1
5.823823650E-1,-1.697657108E-1,1.137170792E-1,1.375617981E-1
5.873784070E-1,-4.065990448E-3,2.190303802E-2,4.782867432E-1
5.923744480E-1,1.184887886E-1,-3.213882446E-2,7.555580139E-1
5.973704900E-1,1.986062527E-1,-5.870914459E-2,9.513216019E-1
6.023664800E-1,2.420263290E-1,-9.626007080E-2,1.047577858E0
6.073624690E-1,2.302701473E-1,-1.306939125E-1,9.978332520E-1
6.123584590E-1,2.444939613E-1,-1.142377853E-1,9.075202942E-1
6.173544480E-1,1.365323067E-1,-7.108068466E-2,8.717279434E-1
6.223504380E-1,-1.242804527E-2,-7.256364822E-2,7.567787170E-1
6.273464280E-1,-8.835935593E-2,-7.544374466E-2,5.631170273E-1
6.323424170E-1,-1.540226936E-1,-7.934093475E-2,4.525156021E-1
6.373384070E-1,-1.291837692E-1,-6.503629684E-2,3.528032303E-1
6.423343960E-1,-3.335952759E-2,-8.458042145E-2,2.209672928E-1
6.473303860E-1,1.049597263E-1,-5.663347244E-2,6.670284271E-2
6.523263750E-1,1.858451366E-1,-2.868032455E-2,-6.726074219E-2
6.573223650E-1,2.238620520E-1,1.374292374E-2,-5.436897278E-3
6.623183550E-1,2.478665113E-1,4.201555252E-2,7.487392426E-2
6.673143440E-1,1.964824200E-1,4.649972916E-2,9.771347046E-2
6.723103340E-1,1.038955450E-1,5.123376846E-2,-3.006935120E-3
6.773063230E-1,7.035040855E-2,4.687356949E-2,-1.694173813E-1
6.823023130E-1,1.471436024E-2,3.857707977E-2,-3.632130623E-1
6.872983030E-1,-4.395294189E-2,8.383893967E-2,-5.940032005E-1
6.922942920E-1,-1.774964333E-1,9.227418900E-2,-8.000679016E-1
6.972902820E-1,-3.197480440E-1,4.534578323E-2,-9.201393127E-1
7.022862710E-1,-4.047460556E-1,3.867435455E-2,-1.012123108E0
7.072822610E-1,-2.717165947E-1,1.621255875E-1,-1.000143051E0
7.122782500E-1,-2.602699995E-1,2.102775574E-1,-9.753274918E-1
7.172742400E-1,-3.981244564E-1,2.026185989E-1,-9.757528305E-1
7.222702300E-1,-5.041983128E-1,2.011241913E-1,-9.631910324E-1
7.272662190E-1,-5.368617773E-1,2.154521942E-1,-8.761911392E-1
7.322622090E-1,-5.350449085E-1,1.929864883E-1,-7.437105179E-1
7.372581980E-1,-4.365599155E-1,1.717538834E-1,-6.037621498E-1
7.422541880E-1,-2.788592577E-1,1.704835892E-1,-4.178719521E-1
7.472501780E-1,-9.961175919E-2,1.649718285E-1,-1.812219620E-1
7.522461670E-1,1.883506775E-3,2.168331146E-1,6.812572479E-2
7.572421570E-1,1.028996706E-1,2.348132133E-1,3.971109390E-1
7.622381460E-1,2.230619192E-1,2.137184143E-1,7.628984451E-1
7.672341360E-1,2.863324881E-1,2.103228569E-1,1.103768349E0
7.722301250E-1,3.268624544E-1,2.145743370E-1,1.282234192E0
7.772261150E-1,3.693128824E-1,2.119216919E-1,1.285297394E0
7.822221050E-1,3.859472275E-1,1.785502434E-1,1.152273178E0
7.872180940E-1,3.632588387E-1,1.007618904E-1,9.361925125E-1
7.922140840E-1,2.917788029E-1,-2.565002441E-2,6.516103745E-1
7.972100730E-1,1.951724291E-1,-1.856932640E-1,3.557043076E-1
8.022060630E-1,1.161624193E-1,-3.073811531E-1,7.202625275E-2
8.072020530E-1,2.553987503E-2,-3.429203033E-1,-1.475229263E-1
8.121980420E-1,-6.298387051E-2,-2.876024246E-1,-3.132381439E-1
8.171940320E-1,-1.454830170E-1,-1.797041893E-1,-4.733648300E-1
8.221900210E-1,-2.232173681E-1,-5.687046051E-2,-5.952086449E-1
8.271860110E-1,-3.831840754E-1,7.155179977E-2,-6.507725716E-1
8.321820000E-1,-5.257880688E-1,2.153744698E-1,-6.835703850E-1
8.371779900E-1,-6.467027664E-1,2.747478485E-1,-7.129034996E-1
8.421739800E-1,-6.984275579E-1,2.691130638E-1,-6.435065269E-1
8.471699690E-1,-6.906081438E-1,2.652025223E-1,-6.137766838E-1
8.521659590E-1,-6.412909031E-1,3.199458122E-1,-5.993676186E-1
8.571619480E-1,-5.311938524E-1,3.851904869E-1,-4.619436264E-1
8.621579380E-1,-3.796322346E-1,4.414362907E-1,-2.448186874E-1
8.671539280E-1,-3.209325075E-1,4.454212189E-1,8.028125763E-2
8.721499170E-1,-2.833786011E-1,4.640278816E-1,2.557001114E-1
8.771459070E-1,-2.613869905E-1,5.158467293E-1,3.825788498E-1
8.821418960E-1,-2.025046945E-1,5.434741974E-1,4.374494553E-1
8.871378860E-1,-1.399303675E-1,5.516257286E-1,5.018033981E-1
8.921338750E-1,-8.309650421E-2,4.924621582E-1,5.091161728E-1
8.971298650E-1,2.207891345E-1,1.895952225E-1,8.028697968E-1
9.021258550E-1,3.995490670E-1,-2.182674408E-1,5.057334900E-1
9.071218440E-1,3.457436562E-1,-5.830993652E-1,2.259082794E-1
9.121178340E-1,3.136383891E-1,-7.769525051E-1,1.349096298E-1
9.171138230E-1,3.648015857E-1,-8.201544285E-1,1.556043625E-1
9.221098130E-1,3.781936169E-1,-7.944295406E-1,3.633937836E-1
9.271058030E-1,3.000940084E-1,-6.333308220E-1,5.570449829E-1
9.321017920E-1,2.257475555E-1,-3.897254467E-1,6.269483566E-1
9.370977820E-1,1.407741904E-1,-1.541352272E-1,5.974006653E-1
9.420937710E-1,3.161543608E-2,4.995059967E-2,4.974374771E-1
9.470897610E-1,-1.056417823E-1,2.134065628E-1,3.940553665E-1
9.520857500E-1,-2.897166610E-1,3.462529182E-1,3.157291412E-1
9.570817400E-1,-5.498777032E-1,4.059090614E-1,2.288656235E-1
9.620777300E-1,-8.393576145E-1,4.359836578E-1,8.087730408E-2
9.670737190E-1,-1.101477623E0,5.084962845E-1,-1.043176651E-1
9.720697610E-1,-1.231822610E0,5.809760094E-1,-2.601261139E-1
9.770658030E-1,-1.231192589E0,6.204743385E-1,-5.154933929E-1
9.820618440E-1,-1.161977053E0,6.038355827E-1,-7.986516953E-1
9.870578860E-1,-1.028858900E0,5.031056404E-1,-1.038130283E0
9.920539280E-1,-7.980550528E-1,2.951436043E-1,-1.229463577E0
9.970499690E-1,-4.692053795E-1,5.692577362E-2,-1.339608192E0
1.002046011E0,-1.274743378E-1,-1.206269264E-1,-1.416703224E0
1.007042053E0,1.849496216E-1,-2.947523594E-1,-1.432433128E0
1.012038094E0,3.971466720E-1,-3.889133930E-1,-1.339612007E0
1.017034136E0,5.769938827E-1,-3.985650539E-1,-1.219864845E0
1.022030178E0,7.201161981E-1,-3.624417782E-1,-1.020822048E0
1.027026219E0,8.268252015E-1,-3.095576763E-1,-7.570772171E-1
1.032022261E0,8.498442769E-1,-2.214138508E-1,-4.716072083E-1
1.037018303E0,8.467006683E-1,-1.987307072E-1,-1.118755341E-1
1.042014344E0,8.080635071E-1,-1.656644344E-1,2.410802841E-1
1.047010386E0,7.386543751E-1,-1.372663975E-1,5.876216888E-1
1.052006428E0,6.528375745E-1,-1.095054150E-1,8.566322327E-1
1.057002469E0,5.652735233E-1,-1.022851467E-1,1.096494675E0
1.061998511E0,5.666933060E-1,-8.766531944E-2,1.259995461E0
1.066994553E0,6.138950586E-1,-9.007716179E-2,1.280985832E0
1.071990594E0,6.405173540E-1,-9.567141533E-2,1.246092796E0
1.076986636E0,6.995936632E-1,-1.857492924E-1,1.212829590E0
1.081982678E0,7.529693246E-1,-2.839143276E-1,1.104999542E0
1.086978719E0,8.342114091E-1,-3.948137760E-1,9.228658676E-1
1.091974761E0,9.290581942E-1,-5.181722641E-1,7.000007629E-1
1.096970803E0,9.756410718E-1,-6.106770039E-1,4.221067429E-1
1.101966844E0,1.021732688E0,-6.669692993E-1,7.479953766E-2
1.106962886E0,1.014213324E0,-7.052428722E-1,-2.181024551E-1
1.111958928E0,8.996852636E-1,-7.154264450E-1,-3.855628967E-1
1.116954969E0,7.151892781E-1,-6.825275421E-1,-4.808673859E-1
1.121951011E0,5.023191571E-1,-5.869481564E-1,-4.902858734E-1
1.126947053E0,2.505484223E-1,-4.048271179E-1,-4.619598389E-1
1.131943094E0,6.439065933E-2,-1.743390560E-1,-4.247961044E-1
1.136939136E0,-4.211565852E-2,5.192232132E-2,-3.550291061E-1
1.141935178E0,-1.261757314E-1,2.263116837E-1,-3.004951477E-1
1.146931219E0,-1.777690351E-1,3.489160538E-1,-2.610883713E-1
1.151927261E0,-2.061713934E-1,3.864526749E-1,-2.414655685E-1
1.156923303E0,-2.207801491E-1,3.582715988E-1,-2.367439270E-1
1.161919344E0,-2.549829483E-1,2.833957672E-1,-2.181053162E-1
1.166915386E0,-2.515515387E-1,2.191443443E-1,-2.427778244E-1
1.171911428E0,-2.157139182E-1,1.748695374E-1,-2.771291733E-1
1.176907417E0,-1.428388804E-1,1.265029907E-1,-3.353576660E-1
1.181903407E0,-7.567363977E-2,8.840346336E-2,-4.269313812E-1
1.186899396E0,2.906793356E-2,6.538391113E-2,-5.183877945E-1
1.191895386E0,6.679037213E-2,5.746626854E-2,-5.525665283E-1
1.196891375E0,1.414740086E-2,4.560995102E-2,-5.392932892E-1
1.201887365E0,-7.600787282E-2,3.918218613E-2,-4.262304306E-1
1.206883355E0,-1.897047162E-1,-4.749536514E-3,-2.852973938E-1
1.211879344E0,-2.843200564E-1,-1.491713524E-2,-1.879301071E-1
1.216875334E0,-2.698799968E-1,1.794719696E-2,-1.195621490E-1
1.221871323E0,-2.040348500E-1,6.000208855E-2,-5.133342743E-2
1.226867313E0,-8.668771386E-2,8.236026764E-2,-2.606868744E-2
1.231863303E0,2.498048544E-2,2.786993980E-2,-9.129047394E-2
1.236859292E0,9.823709726E-2,-4.575324059E-2,-2.038154602E-1
1.241855282E0,1.338008344E-1,-1.048185825E-1,-2.920465469E-1
1.246851271E0,1.129989326E-1,-1.301739216E-1,-2.750778198E-1
1.251847261E0,1.503438652E-1,-1.172852516E-1,-2.057418823E-1
1.256843250E0,2.023707032E-1,-1.281192303E-1,-1.892366409E-1
1.261839240E0,2.548765540E-1,-1.340136528E-1,-2.253389359E-1
1.266835230E0,2.414664924E-1,-1.205849648E-1,-3.186664581E-1
1.271831219E0,1.342141926E-1,-1.021187305E-1,-3.593568802E-1
1.276827209E0,3.832718730E-2,2.562046051E-3,-3.095006943E-1
1.281823198E0,1.233041286E-3,1.262612343E-1,-2.695665359E-1
1.286819188E0,-8.224487305E-2,1.782889366E-1,-3.158283234E-1
1.291815178E0,-1.787886918E-1,1.352708340E-1,-4.480247498E-1
1.296811167E0,-2.265972793E-1,7.431793213E-2,-5.896749496E-1
1.301807157E0,-2.073133737E-1,3.856253624E-2,-6.406126022E-1
1.306803146E0,-1.456803977E-1,-2.901172638E-2,-5.583629608E-1
1.311799136E0,-1.397061348E-2,-4.710507393E-2,-4.674625397E-1
1.316795125E0,1.588531137E-1,-1.596283913E-2,-3.965320587E-1
1.321791115E0,2.871760130E-1,6.790876389E-3,-3.263368607E-1
1.326787105E0,3.959039152E-1,3.535437584E-2,-2.520618439E-1
1.331783094E0,4.808145463E-1,4.075551033E-2,-1.497392654E-1
1.336779084E0,4.996239841E-1,4.168725014E-2,-4.313945770E-2
1.341775073E0,3.907302916E-1,3.764605522E-2,7.747650146E-2
1.346771063E0,2.161410749E-1,1.387763023E-2,2.074899673E-1
1.351767053E0,1.363742352E-2,-2.986621857E-2,3.947210312E-1
1.356763042E0,-1.510779262E-1,-6.535243988E-2,5.676136017E-1
1.361759032E0,-2.740649283E-1,-1.167981625E-1,7.168188095E-1
1.366755021E0,-2.793167830E-1,-3.648948669E-2,8.568286896E-1
1.371751011E0,-1.670704037E-1,1.125864983E-1,1.021247864E0
1.376747000E0,-8.510498703E-2,2.057414055E-1,1.171953201E0
1.381742990E0,-4.739160836E-2,2.237994671E-1,1.290015221E0
1.386738980E0,-6.277258694E-2,1.811985970E-1,1.304025650E0
1.391734969E0,-1.162334234E-1,1.403715611E-1,1.228581429E0
1.396730959E0,-1.500098258E-1,1.445839405E-1,1.097263336E0
1.401726948E0,-1.020796001E-1,1.462967396E-1,9.005966187E-1
1.406722938E0,-2.064134181E-2,1.653206348E-1,6.433095932E-1
1.411718928E0,3.671707213E-2,1.545984745E-1,3.491945267E-1
1.416714917E0,7.487189770E-2,9.601640701E-2,2.280616760E-2
1.421710907E0,1.278391182E-1,4.790639877E-2,-2.693185806E-1
1.426706896E0,2.056200057E-1,1.557350159E-2,-5.180091858E-1
1.431702938E0,2.271168977E-1,-1.005744934E-2,-6.950101852E-1
1.436698980E0,1.923823208E-1,-4.770517349E-3,-7.768707275E-1
1.441695021E0,1.206212193E-1,4.587936401E-2,-7.735586166E-1
1.446691063E0,5.885352194E-2,8.924794197E-2,-6.996679306E-1
1.451687105E0,-3.175465763E-2,1.012139320E-1,-5.887117386E-1
1.456683146E0,-1.180570573E-1,1.579022408E-1,-3.881826401E-1
1.461679188E0,-1.864258200E-1,1.868624687E-1,-1.410264969E-1
1.466675230E0,-2.185265571E-1,1.446728706E-1,6.694984436E-2
1.471671271E0,-2.429151088E-1,1.168096066E-1,2.027378082E-1
1.476667313E0,-2.348842621E-1,1.122891903E-1,2.906198502E-1
1.481663355E0,-1.891661733E-1,1.068842411E-1,3.165407181E-1
1.486659396E0,-1.246782094E-1,1.146707535E-1,2.998876572E-1
1.491655438E0,-6.046575308E-2,1.023385525E-1,2.693786621E-1
1.496651480E0,-1.088251173E-2,8.937621117E-2,1.724300385E-1
1.501647521E0,1.483595371E-2,9.511470795E-2,9.029388428E-2
1.506643563E0,2.174851298E-2,1.192686558E-1,2.264499664E-2
1.511639605E0,-1.349374652E-2,1.718015671E-1,1.724147797E-2
1.516635646E0,-7.188910246E-2,2.145872116E-1,1.067714691E-1
1.521631688E0,-1.156961173E-1,2.428188324E-1,2.240314484E-1
1.526627730E0,-1.356630474E-1,2.515869141E-1,3.261690140E-1
1.531623771E0,-1.365069449E-1,2.408180237E-1,4.038972855E-1
1.536619813E0,-9.909600019E-2,2.104375362E-1,4.290180206E-1
1.541615855E0,-3.783169389E-2,1.413738728E-1,4.210548401E-1
1.546611896E0,2.817921340E-2,9.088063240E-2,4.040441513E-1
1.551607938E0,9.871459007E-2,2.085900307E-2,3.827972412E-1
1.556603980E0,1.262796968E-1,-3.049778938E-2,3.193435669E-1
1.561600021E0,1.587458700E-1,-6.795430183E-2,2.329730988E-1
1.566596063E0,1.674564779E-1,-1.104779243E-1,1.333246231E-1
1.571592105E0,1.334239393E-1,-1.055040359E-1,3.464412689E-2
1.576588146E0,7.102960348E-2,-7.698035240E-2,-7.264423370E-2
1.581584188E0,-1.021289825E-2,-6.275010109E-2,-1.838493347E-1
1.586580230E0,-3.407421708E-2,-2.432298660E-2,-2.990951538E-1
1.591576271E0,-5.803325772E-2,-4.443883896E-3,-3.851852417E-1
1.596572313E0,-8.685643971E-2,3.522109985E-2,-4.281940460E-1
1.601568355E0,-1.060374528E-1,5.656719208E-2,-4.380044937E-1
1.606564396E0,-1.154368371E-1,6.919670105E-2,-4.196290970E-1
1.611560438E0,-1.100725979E-1,7.323026657E-2,-3.828287125E-1
1.616556480E0,-1.136196256E-1,5.924153328E-2,-3.230123520E-1
1.621552521E0,-1.403258741E-1,5.553603172E-2,-1.832532883E-1
1.626548563E0,-1.285641938E-1,4.754710197E-2,-3.534221649E-2
1.631544605E0,-9.798315167E-2,8.236622810E-2,1.160860062E-1
1.636540646E0,-5.816948414E-2,1.213130951E-1,2.283964157E-1
1.641536688E0,-3.287552297E-2,1.309218407E-1,2.877473831E-1
1.646532730E0,-1.744209230E-2,1.159467697E-1,2.946786880E-1
1.651528771E0,-2.604208887E-2,1.099259853E-1,2.733345032E-1
1.656524813E0,-4.450733960E-2,1.127381325E-1,3.094463348E-1
1.661520855E0,-4.906126857E-2,1.148128510E-1,3.455562592E-1
1.666516896E0,-5.400845408E-2,1.208586693E-1,4.149217606E-1
1.671512938E0,-3.552712500E-2,9.736466408E-2,4.556283951E-1
1.676508980E0,-1.732563972E-2,7.776618004E-2,4.536857605E-1
1.681505021E0,1.513062418E-2,2.409076691E-2,4.046764374E-1
1.686501063E0,5.226428807E-2,-2.040457726E-2,3.041496277E-1
1.691497105E0,7.983852923E-2,-7.459807396E-2,2.189350128E-1
1.696493146E0,1.076031029E-1,-8.598732948E-2,1.108388901E-1
1.701489188E0,9.272409976E-2,-9.742569923E-2,1.794624329E-2
1.706485230E0,4.974558949E-2,-9.898710251E-2,-7.428836823E-2
1.711481271E0,1.202619076E-2,-9.060907364E-2,-1.421842575E-1
1.716477313E0,1.746244729E-2,-6.748247147E-2,-1.860036850E-1
1.721473303E0,3.246630728E-2,-4.374074936E-2,-2.107925415E-1
1.726469292E0,3.314000368E-2,-1.953434944E-2,-2.356443405E-1
1.731465282E0,-1.371197402E-2,4.780292511E-4,-2.605953217E-1
1.736461271E0,-4.602140188E-2,-2.659797668E-3,-2.761487961E-1
1.741457261E0,-2.106878161E-2,-4.525184631E-4,-2.870578766E-1
1.746453250E0,-1.050263643E-2,-3.097891808E-2,-3.123369217E-1
1.751449240E0,-3.798486292E-2,-3.717303276E-2,-3.138027191E-1
1.756445230E0,-6.993094087E-2,-4.297924042E-2,-3.011493683E-1
1.761441219E0,-5.902893841E-2,-2.480030060E-2,-2.981758118E-1
1.766437209E0,-6.731875241E-2,-2.562022209E-2,-2.905349731E-1
1.771433198E0,-7.087825239E-2,-2.450466156E-3,-2.735586166E-1
1.776429188E0,-7.919622958E-2,2.551531792E-2,-2.710666656E-1
1.781425178E0,-1.209733635E-1,2.509546280E-2,-2.687292099E-1
1.786421167E0,-1.531745493E-1,3.926181793E-2,-2.617959976E-1
1.791417157E0,-1.569247842E-1,4.894852638E-2,-2.693195343E-1
1.796413146E0,-1.419973969E-1,4.009175301E-2,-2.864894867E-1
1.801409136E0,-7.513453066E-2,2.694487572E-2,-2.894258499E-1
1.806405125E0,-4.207953811E-2,9.446859360E-3,-2.877082825E-1
1.811401115E0,5.068793893E-3,-2.661299706E-2,-3.146171570E-1
1.816397105E0,3.327789903E-2,-5.268692970E-2,-3.461370468E-1
1.821393094E0,6.190091372E-2,-6.886124611E-2,-3.584909439E-1
1.826389084E0,7.670813799E-2,-8.937048912E-2,-3.898658752E-1
1.831385073E0,5.409976840E-2,-7.618975639E-2,-4.021158218E-1
1.836381063E0,6.094151735E-2,-6.260085106E-2,-4.144945145E-1
1.841377053E0,3.029094636E-2,-5.335664749E-2,-3.985013962E-1
1.846373042E0,2.896726131E-2,-3.882837296E-2,-3.876523972E-1
1.851369032E0,-1.459640265E-2,-9.610652924E-3,-3.391447067E-1
1.856365021E0,-3.768652678E-4,1.043200493E-2,-2.865285873E-1
1.861361011E0,3.303365409E-2,7.225036621E-3,-2.251243591E-1
1.866357000E0,7.117390633E-2,1.890206337E-2,-1.644811630E-1
1.871352990E0,1.282413453E-1,2.624917030E-2,-9.505081177E-2
1.876348980E0,1.420627981E-1,1.501035690E-2,2.585315704E-2
1.881344969E0,1.223337948E-1,2.314114571E-2,1.693916321E-1
1.886340959E0,5.481214821E-2,4.070162773E-2,3.117542267E-1
1.891336948E0,-3.174690902E-2,6.733155251E-2,4.293251038E-1
1.896332938E0,-8.967269957E-2,1.026270390E-1,5.081930161E-1
1.901328928E0,-1.144463718E-1,1.225838661E-1,5.630006790E-1
1.906324917E0,-1.300299168E-1,1.414325237E-1,6.129961014E-1
1.911320959E0,-1.224454194E-1,1.446962357E-1,6.393222809E-1
1.916317000E0,-1.060653329E-1,1.419034004E-1,6.564569473E-1
1.921313042E0,-1.142318472E-1,1.284487247E-1,6.501922607E-1
1.926309084E0,-1.276707202E-1,1.280670166E-1,6.397533417E-1
1.931305125E0,-1.273544282E-1,1.218433380E-1,6.013565063E-1
1.936301167E0,-1.182806194E-1,1.384134293E-1,5.304498672E-1
1.941297209E0,-1.002645865E-1,1.301486492E-1,4.652719498E-1
1.946293250E0,-6.367364526E-2,1.164884567E-1,3.771848679E-1
1.951289292E0,-1.794908941E-2,1.023216248E-1,2.900829315E-1
1.956285334E0,1.314790547E-2,9.239864349E-2,1.992082596E-1
1.961281375E0,1.572376490E-2,8.697104454E-2,8.548355103E-2
1.966277417E0,1.381622255E-2,8.629012108E-2,-3.202438354E-2
1.971273459E0,-1.995787024E-3,9.060239792E-2,-1.249084473E-1
1.976269500E0,-3.156779706E-2,9.070539474E-2,-2.125043869E-1
1.981265542E0,-4.612207413E-2,1.009759903E-1,-2.854013443E-1
1.986261584E0,-2.671374381E-2,1.024789810E-1,-3.200397491E-1
1.991257625E0,-7.085382938E-3,7.154297829E-2,-3.024911880E-1
1.996253667E0,-6.500303745E-3,6.522870064E-2,-2.426042557E-1
2.001249709E0,2.225530148E-2,5.455231667E-2,-1.785974503E-1
2.006245750E0,2.172614634E-2,3.014874458E-2,-1.532773972E-1
2.011241792E0,1.586392522E-3,1.554107666E-2,-1.329450607E-1
2.016237834E0,-2.823615074E-2,1.511049271E-2,-1.221961975E-1
2.021233875E0,-4.384210706E-2,1.948165894E-2,-1.257982254E-1
2.026229917E0,-5.953863263E-2,9.431362152E-3,-1.340579987E-1
2.031225959E0,-8.961813897E-2,-5.327939987E-3,-1.279792786E-1
2.036222000E0,-8.177499473E-2,-1.014232635E-3,-1.409215927E-1
2.041218042E0,-3.619095683E-2,7.966756821E-3,-6.351280212E-2
2.046214084E0,-6.746649742E-4,2.632260323E-2,3.777503967E-3
2.051210125E0,1.325413585E-3,3.018426895E-2,4.680347443E-2
2.056206167E0,3.404006362E-3,5.276989937E-2,9.906387329E-2
2.061202209E0,-1.830597222E-2,5.109047890E-2,1.557750702E-1
2.066198250E0,-2.580037713E-2,3.945231438E-2,1.932182312E-1
2.071194292E0,-3.814409673E-2,2.287769318E-2,2.019786835E-1
2.076190334E0,-3.634165227E-2,-3.202080727E-2,1.918697357E-1
2.081186375E0,-5.346408486E-2,-6.309771538E-2,1.630058289E-1
2.086182417E0,-2.766205370E-2,-7.985520363E-2,1.107158661E-1
2.091178459E0,7.534399629E-3,-5.392265320E-2,7.318210602E-2
2.096174500E0,6.646567583E-2,-4.724693298E-2,4.072475433E-2
2.101170542E0,1.110239178E-1,-3.588104248E-2,3.786087036E-3
2.106166584E0,1.174151450E-1,-2.926635742E-2,-4.238224030E-2
2.111162625E0,1.050188690E-1,-2.717423439E-2,-8.353614807E-2
2.116158667E0,7.864488661E-2,-3.436350822E-2,-1.101989746E-1
2.121154709E0,5.728903413E-2,-3.180909157E-2,-1.557092667E-1
2.126150750E0,4.075561464E-2,-1.954174042E-2,-1.914367676E-1
2.131146792E0,5.768631399E-2,-1.184058189E-2,-2.032423019E-1
2.136142834E0,7.458232343E-2,-1.811790466E-2,-2.055902481E-1
2.141138875E0,9.606924653E-2,-9.910821915E-3,-1.747550964E-1
2.146134917E0,9.364588559E-2,-6.285190582E-3,-1.490221024E-1
2.151130959E0,8.170104027E-2,1.639413834E-2,-1.092929840E-1
2.156127000E0,7.464355230E-2,2.468466759E-2,-8.890819550E-2
2.161123042E0,8.682098985E-2,1.865839958E-2,-8.294105530E-2
2.166119084E0,8.018025756E-2,2.212977409E-2,-8.650684357E-2
2.171115125E0,6.442266703E-2,3.036618233E-2,-7.107543945E-2
2.176111167E0,4.886369407E-2,2.428722382E-2,-7.951545715E-2
2.181107209E0,5.259077251E-2,2.314901352E-2,-6.895351410E-2
2.186103250E0,4.208061099E-2,3.170561790E-2,-7.280349731E-2
2.191099292E0,4.570505023E-2,2.138447762E-2,-5.770111084E-2
2.196095334E0,4.451468587E-2,2.073788643E-2,-4.750823975E-2
2.201091375E0,2.420908213E-2,1.073884964E-2,-5.644893646E-2
2.206087417E0,-1.983210444E-2,1.051163673E-2,-7.488632202E-2
2.211083459E0,-2.564115822E-2,1.527118683E-2,-7.427120209E-2
2.216079500E0,-3.146894276E-2,1.548147202E-2,-3.102207184E-2
2.221075542E0,-8.880108595E-3,6.286859512E-3,-2.413749695E-3
2.226071584E0,-8.956044912E-4,6.712198257E-3,7.817554474E-2
2.231067625E0,-1.211443543E-2,1.173949242E-2,1.059226990E-1
2.236063667E0,-4.213063419E-2,2.291917801E-3,1.097717285E-1
2.241059709E0,-5.260924995E-2,-2.706289291E-3,9.949111938E-2
2.246055750E0,-6.267905235E-2,-1.259779930E-2,1.036100388E-1
2.251051792E0,-7.251405716E-2,-3.695726395E-3,1.030588150E-1
2.256047834E0,-5.376790464E-2,4.849195480E-3,1.311206818E-1
2.261043875E0,-6.361323595E-2,-1.205444336E-3,1.305723190E-1
2.266039917E0,-4.017648101E-2,-1.703715324E-2,1.206703186E-1
2.271035959E0,-3.132334352E-2,3.123283386E-4,1.156826019E-1
2.276032000E0,-3.673121333E-3,3.080129623E-3,1.060705185E-1
2.281028042E0,-4.780441523E-3,1.992392540E-2,8.710384369E-2
2.286024084E0,-6.029456854E-3,1.288175583E-2,7.305049896E-2
2.291020125E0,-1.678125560E-2,1.524806023E-2,5.917739868E-2
2.296016167E0,-2.744340897E-2,3.348827362E-3,3.117370605E-2
2.301012209E0,-2.831757069E-2,-1.325082779E-2,3.666019440E-2
2.306008250E0,-3.396061063E-2,-5.971193314E-3,4.685115814E-2
2.311004292E0,-3.969913721E-2,1.152992249E-3,1.472234726E-1
2.316000334E0,-4.082357883E-2,1.268362999E-2,2.278881073E-1
2.320996375E0,-6.071464717E-2,9.255409241E-3,2.606477737E-1
2.325992417E0,-7.057437301E-2,1.469063759E-2,2.744073868E-1
2.330988407E0,-8.468432724E-2,2.402400970E-2,2.598867416E-1
2.335984396E0,-6.051059067E-2,8.780241013E-3,1.935672760E-1
2.340980386E0,-6.029315293E-2,7.390499115E-3,7.578849792E-2
2.345976375E0,-5.522651970E-2,1.052689552E-2,-5.515384674E-2
2.350972365E0,-7.396498322E-2,8.892297745E-3,-1.802530289E-1
2.355968355E0,-8.787928522E-2,3.140211105E-2,-2.902193069E-1
2.360964344E0,-1.067242622E-1,5.909729004E-2,-3.140459061E-1
2.365960334E0,-1.069334447E-1,8.723187447E-2,-2.999505997E-1
2.370956323E0,-8.875666559E-2,9.201145172E-2,-2.292327881E-1
2.375952313E0,-6.182365119E-2,1.021192074E-1,-1.166105270E-1
2.380948303E0,-4.512059689E-2,1.076283455E-1,-1.450634003E-2
2.385944292E0,-3.359679878E-2,9.898638725E-2,8.194923401E-2
2.390940282E0,-1.756995916E-2,8.091711998E-2,1.633644104E-1
2.395936271E0,-1.101160049E-2,6.280755997E-2,1.824483871E-1
2.400932261E0,5.273133516E-3,3.036689758E-2,1.967201233E-1
2.405928250E0,7.562458515E-3,1.686215401E-2,1.635189056E-1
2.410924240E0,1.970860362E-2,-1.325607300E-3,1.116113663E-1
2.415920230E0,1.307073236E-2,-4.131793976E-4,6.014823914E-2
2.420916219E0,-7.398724556E-3,1.478648186E-2,1.383209229E-2
2.425912209E0,-1.318839192E-2,1.100993156E-2,-8.423805237E-3
2.430908198E0,-2.365157008E-2,2.613067627E-3,1.220130920E-2
2.435904188E0,-1.035976410E-2,3.924369812E-3,2.310085297E-2
2.440900178E0,-6.838470697E-3,9.975433350E-3,3.866481781E-2
2.445896167E0,1.568800211E-2,1.578426361E-2,2.569103241E-2
2.450892157E0,4.272115231E-2,1.176142693E-2,-1.293182373E-3
2.455888146E0,6.480070949E-2,2.786397934E-3,-6.118774414E-2
2.460884136E0,7.714548707E-2,3.191947937E-3,-1.489868164E-1
2.465880125E0,9.398767352E-2,-2.029132843E-2,-2.264871597E-1
2.470876115E0,4.404208064E-2,-4.348373413E-2,-3.223676682E-1
2.475872105E0,8.542954922E-3,-5.204772949E-2,-3.652877808E-1
2.480868094E0,-1.750773191E-2,-8.385062218E-2,-3.985271454E-1
2.485864084E0,-3.402012587E-2,-1.291060448E-1,-4.459552765E-1
2.490860073E0,-3.618958592E-2,-1.542775631E-1,-4.600563049E-1
2.495856115E0,-1.454436779E-2,-1.594858170E-1,-4.268865585E-1
2.500852157E0,1.676893234E-2,-1.496045589E-1,-3.753604889E-1
2.505848198E0,6.278878450E-2,-1.295118332E-1,-3.103914261E-1
2.510844240E0,8.559256792E-2,-1.373288631E-1,-2.415733337E-1
2.515840282E0,8.534085751E-2,-1.255786419E-1,-1.545877457E-1
2.520836323E0,9.058126807E-2,-1.276602745E-1,-1.113119125E-1
2.525832365E0,7.258257270E-2,-1.054739952E-1,-5.439090729E-2
2.530828407E0,3.608408570E-2,-7.839918137E-2,1.902580261E-3
2.535824448E0,-1.922482252E-2,-7.030987740E-2,4.338550568E-2
2.540820490E0,-4.595223069E-2,-5.748867989E-2,9.876060486E-2
2.545816532E0,-6.333042681E-2,-3.071308136E-2,1.727628708E-1
2.550812573E0,-5.243700743E-2,-1.398038864E-2,2.700443268E-1
2.555808615E0,-4.197818041E-2,6.753683090E-3,3.240547180E-1
2.560804657E0,-4.133909941E-2,1.715826988E-2,3.779087067E-1
2.565800698E0,-4.117065668E-2,3.152036667E-2,4.173898697E-1
2.570796740E0,-3.670039773E-2,2.121973038E-2,4.236640930E-1
2.575792782E0,-3.738749027E-2,1.974940300E-2,4.064807892E-1
2.580788823E0,-2.398586273E-2,3.291130066E-3,3.470363617E-1
2.585784865E0,3.407537937E-3,5.349636078E-3,2.931079865E-1
2.590780907E0,1.131531596E-2,1.185417175E-2,2.492599487E-1
2.595776948E0,2.381092310E-2,1.811528206E-2,1.963672638E-1
2.600772990E0,3.146794438E-2,2.897334099E-2,1.677007675E-1
2.605769032E0,2.012860775E-2,4.443764687E-2,1.630382538E-1
2.610765073E0,-1.025205851E-2,4.082632065E-2,1.441555023E-1
2.615761115E0,2.451360226E-3,3.719782829E-2,1.301975250E-1
2.620757157E0,1.523789763E-2,3.350543976E-2,1.353855133E-1
2.625753198E0,2.357390523E-2,2.960944176E-2,8.838653564E-2
2.630749240E0,2.284243703E-2,1.592040062E-2,3.240966797E-2
2.635745282E0,8.396953344E-3,2.115440369E-2,-1.828765869E-2
2.640741323E0,-7.697641850E-4,1.196336746E-2,-1.017541885E-1
2.645737365E0,4.721224308E-3,7.649421692E-3,-1.845579147E-1
2.650733407E0,9.783208370E-4,1.776170731E-2,-2.477493286E-1
2.655729448E0,-2.424836159E-3,1.857924461E-2,-2.915534973E-1
2.660725490E0,-1.964825392E-2,1.976656914E-2,-3.066797256E-1
2.665721532E0,-3.280490637E-3,2.327203751E-3,-3.218498230E-1
2.670717573E0,1.310622692E-2,-9.656906128E-3,-3.371448517E-1
2.675713615E0,9.475648403E-4,-2.088761330E-2,-3.383579254E-1
2.680709657E0,-1.671731472E-3,-2.201557159E-2,-2.970476151E-1
2.685705698E0,-2.346843481E-2,-1.312875748E-2,-2.230596542E-1
2.690701740E0,-4.546564817E-2,-3.942489624E-3,-1.166009903E-1
2.695697782E0,-5.819059908E-2,5.550384521E-4,7.918357849E-3
2.700693823E0,-5.713386834E-2,-4.673004150E-3,1.030130386E-1
2.705689865E0,-7.082799077E-2,-2.927637100E-2,1.832752228E-1
2.710685907E0,-7.550171018E-2,-2.574992180E-2,2.298984528E-1
2.715681948E0,-9.964801371E-2,-4.656052589E-2,2.479114532E-1
2.720677990E0,-1.193885058E-1,-4.881668091E-2,2.423219681E-1
2.725674032E0,-1.014887542E-1,-3.737068176E-2,2.085542679E-1
2.730670073E0,-8.888387680E-2,-2.653646469E-2,2.227964401E-1
2.735666115E0,-5.780819058E-2,-1.137018204E-2,2.275857925E-1
2.740662157E0,-3.185480833E-2,-2.044773102E-2,2.277593613E-1
2.745658198E0,-1.564058661E-2,-1.078677177E-2,2.518253326E-1
2.750654240E0,-1.361331344E-2,-2.536916733E-2,2.331380844E-1
2.755650282E0,-1.823335886E-3,-2.591371536E-2,2.242441177E-1
2.760646323E0,1.958003640E-2,-5.531859398E-2,1.918468475E-1
2.765642365E0,2.700936794E-2,-7.046604156E-2,1.123266220E-1
2.770638407E0,2.074328065E-2,-8.101987839E-2,2.883052826E-2
2.775634448E0,1.503086090E-2,-7.248520851E-2,-1.753807068E-3
2.780630490E0,2.396669984E-2,-5.917477608E-2,-6.062507629E-2
2.785626532E0,2.838745713E-2,-4.583001137E-2,-1.095800400E-1
2.790622573E0,2.334710956E-2,-5.139851570E-2,-1.344690323E-1
2.795618615E0,2.798655629E-2,-7.106995583E-2,-1.686916351E-1
2.800614657E0,5.667948723E-2,-7.125353813E-2,-2.217798233E-1
2.805610698E0,7.598564029E-2,-7.594895363E-2,-2.935342789E-1
2.810606740E0,5.739817023E-2,-7.073140144E-2,-3.316278458E-1
2.815602782E0,2.485597134E-2,-7.924199104E-2,-3.744106293E-1
2.820598823E0,-1.218962669E-2,-8.237004280E-2,-3.743524551E-1
2.825594865E0,-5.376911163E-2,-8.006644249E-2,-3.983316422E-1
2.830590907E0,-5.710411072E-2,-8.187031746E-2,-3.939161301E-1
2.835586948E0,-7.462795079E-2,-8.779406548E-2,-3.375854492E-1
2.840582990E0,-3.977262974E-2,-8.840489388E-2,-2.392225266E-1
2.845579032E0,-3.386455774E-2,-8.398365974E-2,-1.465501785E-1
2.850575073E0,-1.397255063E-2,-8.425545692E-2,-9.267139435E-2
2.855571115E0,-1.347786188E-2,-7.028222084E-2,-1.549053192E-2
2.860567157E0,-2.753832936E-2,-3.291893005E-2,5.166912079E-2
2.865563198E0,-3.220057487E-2,-2.459621429E-2,1.088895798E-1
2.870559240E0,-1.801678538E-2,-2.155828476E-2,1.183691025E-1
2.875555282E0,-8.767724037E-3,-1.882362366E-2,9.941005707E-2
2.880551323E0,-8.977830410E-3,-3.548145294E-2,5.228614807E-2
2.885547365E0,-2.803620696E-2,-2.839422226E-2,-8.631706238E-3
2.890543407E0,-1.827934384E-2,-4.035854340E-2,-6.904792786E-2
2.895539448E0,-3.711241484E-2,-5.217075348E-2,-1.194858551E-1
2.900535490E0,-5.606490374E-2,-6.834840775E-2,-1.601266861E-1
2.905531532E0,-2.275857329E-2,-6.497049332E-2,-1.911239624E-1
2.910527573E0,5.618691444E-3,-5.174732208E-2,-1.793031693E-1
2.915523615E0,2.938407660E-2,-2.862405777E-2,-1.440877914E-1
2.920519605E0,4.864037037E-2,-1.966333389E-2,-1.093082428E-1
2.925515051E0,5.388149619E-2,3.742694855E-3,-7.970714569E-2
2.930511041E0,2.124863863E-2,1.293611526E-2,-5.046272278E-2
2.935507030E0,-6.435543299E-3,1.744318008E-2,-2.530097961E-3
2.940503020E0,-1.990172267E-2,5.044889450E-2,3.074645996E-2
2.945499010E0,-2.885496616E-2,6.409358978E-2,5.905151367E-2
2.950494999E0,-3.312489390E-2,7.278251648E-2,5.867767334E-2
2.955490989E0,-2.332171798E-2,7.637262344E-2,7.268810272E-2
2.960486978E0,-1.385483146E-2,6.075429916E-2,5.343627930E-2
2.965482968E0,-2.371197939E-2,5.932950974E-2,5.947113037E-3
2.970478957E0,-2.412980795E-2,5.791664124E-2,-3.164482117E-2
2.975474947E0,-5.618304014E-3,5.176877975E-2,-5.942440033E-2
2.980470937E0,7.968872786E-3,4.111194611E-2,-4.907131195E-2
2.985466509E0,5.470395088E-2,4.497432709E-2,-3.414154053E-2
2.990462499E0,7.746157050E-2,6.332159042E-2,-4.730224609E-4
2.995458488E0,5.265590549E-2,7.685613632E-2,3.286933899E-2
3.000454478E0,5.656611919E-2,9.036540985E-2,9.913253784E-2
3.005450468E0,4.119163752E-2,6.558656693E-2,1.696882248E-1
3.010446457E0,4.474937916E-2,6.447362900E-2,2.587881088E-1
3.015442447E0,5.295759439E-2,3.911590576E-2,2.951507568E-1
3.020438436E0,8.025276661E-2,1.350069046E-2,3.076801300E-1
3.025434426E0,8.858120441E-2,1.123428345E-2,3.013849258E-1
3.030430415E0,6.846424937E-2,3.675937653E-3,2.621593475E-1
3.035426405E0,6.769567728E-2,5.210876465E-3,1.712379456E-1
3.040422395E0,3.860765696E-2,-7.791042328E-3,7.645034790E-2
3.045418384E0,4.335001111E-2,-1.128196716E-2,-1.276683807E-2
3.050414374E0,3.408735991E-2,-3.848552704E-2,-1.012487411E-1
3.055410363E0,3.947073221E-2,-4.628419876E-2,-1.605978012E-1
3.060406353E0,3.575345874E-2,-4.414892197E-2,-1.958980560E-1
3.065402343E0,3.723180294E-2,-6.070137024E-2,-2.073259354E-1
3.070398332E0,5.687892437E-3,-7.679176331E-2,-2.283134460E-1
3.075394322E0,-5.424594879E-2,-1.113677025E-1,-2.397975922E-1
3.080390311E0,-8.541649580E-2,-1.214866638E-1,-2.371320724E-1
3.085386301E0,-7.863758504E-2,-1.121959686E-1,-2.013921738E-1
3.090382290E0,-4.377186298E-2,-8.850240707E-2,-1.707963943E-1
3.095378280E0,-3.799164295E-2,-9.331274033E-2,-1.310338974E-1
3.100374322E0,-1.350119710E-2,-7.890605927E-2,-1.106748581E-1
3.105370363E0,-3.578037024E-3,-8.813095093E-2,-8.109188080E-2
3.110366405E0,6.281167269E-3,-9.230232239E-2,-7.560539246E-2
3.115362447E0,6.582945585E-3,-8.675765991E-2,-3.701210022E-2
3.120358488E0,1.651266217E-2,-8.582830429E-2,-3.206825256E-2
3.125354530E0,1.234349608E-2,-7.522678375E-2,-2.725982666E-2
3.130350572E0,3.646433353E-3,-9.315776825E-2,-3.201675415E-2
3.135346613E0,-4.270911217E-2,-5.381679535E-2,-4.630565643E-2
3.140342655E0,-7.814645767E-3,-6.210231781E-2,-7.006359100E-2
3.145338697E0,7.866203785E-3,-5.588531494E-2,-1.032104492E-1
3.150334738E0,2.809643745E-2,-3.533363342E-2,-7.916164398E-2
3.155330780E0,5.303651094E-3,-2.906084061E-2,-7.911682129E-2
3.160326822E0,-3.170606494E-2,-3.890991211E-3,-4.105758667E-2
3.165322863E0,-6.386356056E-2,2.582311630E-2,1.568412781E-2
3.170318905E0,-7.230511308E-2,4.566001892E-2,9.101772308E-2
3.175314947E0,-3.809791803E-2,6.026268005E-2,1.183938980E-1
3.180310988E0,6.688535213E-4,4.113578796E-2,1.172199249E-1
3.185307030E0,1.572054625E-2,3.618240356E-2,1.209011078E-1
3.190303072E0,1.214289665E-2,4.523849487E-2,8.667564392E-2
3.195299113E0,1.856046915E-2,3.983736038E-2,5.278491974E-2
3.200295155E0,1.582467556E-2,3.443574905E-2,-4.558563232E-3
3.205291197E0,-6.437897682E-4,5.775833130E-2,-3.778266907E-2
3.210287238E0,-7.081091404E-3,8.577585220E-2,-4.706573486E-2
3.215283280E0,-4.200239480E-2,8.525514603E-2,-1.361942291E-2
3.220279322E0,-3.436131775E-2,1.039652824E-1,4.319763184E-2
3.225275363E0,-3.688247502E-2,1.416563988E-1,8.524799347E-2
3.230271405E0,-4.950290918E-2,1.505465508E-1,1.412115097E-1
3.235267447E0,-3.412882984E-2,1.545238495E-1,1.872720718E-1
3.240263488E0,-9.823262691E-3,1.439008713E-1,2.283639908E-1
3.245259530E0,-4.993557930E-3,1.235904694E-1,2.455101013E-1
3.250255572E0,-9.837716818E-3,1.031727791E-1,2.768917084E-1
3.255251613E0,-3.277659416E-4,9.693622589E-2,2.701320648E-1
3.260247655E0,3.775542974E-2,1.047158241E-1,2.540569305E-1
3.265243697E0,6.155529618E-2,1.264896393E-1,2.334461212E-1
3.270239738E0,8.564159274E-2,1.432824135E-1,1.655311584E-1
3.275235780E0,9.101811051E-2,1.408901215E-1,1.076889038E-1
3.280231822E0,1.062355042E-1,1.385107040E-1,4.557228088E-2
3.285227863E0,8.840394020E-2,1.316738129E-1,1.707744598E-2
3.290223905E0,7.092633843E-2,1.106443405E-1,-6.434440613E-3
3.295219947E0,5.380266905E-2,1.040811539E-1,-1.078414917E-2
3.300215988E0,2.751114964E-2,6.898832321E-2,-5.560874939E-3
3.305212030E0,-8.055418730E-3,3.879976273E-2,3.767108917E-2
3.310208072E0,-5.356550217E-3,1.803779602E-2,4.745674133E-2
3.315204113E0,-2.178637683E-2,-1.711845398E-2,8.105850220E-2
3.320200155E0,-2.376249433E-2,-3.340578079E-2,1.003293991E-1
3.325196197E0,-1.622238755E-2,-4.522562027E-2,1.006431580E-1
3.330192238E0,-4.111796618E-3,-4.772806168E-2,6.785011292E-2
3.335188280E0,-6.441012025E-3,-7.897996902E-2,5.445957184E-2
3.340184322E0,-1.843714714E-2,-9.121227264E-2,2.705383301E-2
3.345180363E0,-3.061309457E-2,-8.932971954E-2,-5.722045898E-6
3.350176405E0,-2.851620317E-2,-7.326698303E-2,-5.055522919E-2
3.355172447E0,-5.504839122E-2,-5.743408203E-2,-5.314731598E-2
3.360168488E0,-6.748658419E-2,-4.173135757E-2,-6.045436859E-2
3.365164530E0,-9.439247847E-2,-4.026460648E-2,-5.351066589E-2
3.370160572E0,-7.873441279E-2,-5.296325684E-2,-4.190921783E-2
3.375156613E0,-6.837388873E-2,-7.016372681E-2,-1.621246338E-2
3.380152655E0,-6.338167191E-2,-8.237743378E-2,9.241104126E-3
3.385148697E0,-3.487432003E-2,-8.499193192E-2,2.024269104E-2
3.390144738E0,-6.628692150E-3,-8.777093887E-2,1.699638367E-2
3.395140780E0,-2.174764872E-3,-1.048183441E-1,-5.197525024E-3
3.400136822E0,1.197166741E-2,-1.218624115E-1,-2.714538574E-2
3.405132863E0,1.208232343E-2,-1.436958313E-1,-3.933238983E-2
3.410128905E0,4.561746120E-2,-1.558957100E-1,-6.564617157E-2
3.415124947E0,6.953975558E-2,-1.489515305E-1,-9.651470184E-2
3.420120988E0,6.006956100E-2,-1.230235100E-1,-1.129026413E-1
3.425117030E0,6.024385989E-2,-1.113247871E-1,-1.245164871E-1
3.430113020E0,7.005088031E-2,-1.138310432E-1,-1.313533783E-1
3.435109009E0,7.535028458E-2,-1.066350937E-1,-1.429758072E-1
3.440104999E0,7.140882313E-2,-8.977031708E-2,-1.308765411E-1
3.445100988E0,8.677025139E-2,-1.012611389E-1,-1.237649918E-1
3.450096978E0,7.835182548E-2,-1.124258041E-1,-9.308242798E-2
3.455092968E0,4.653882980E-2,-9.491205215E-2,-8.170032501E-2
3.460088957E0,3.419405222E-2,-8.685493469E-2,-7.050704956E-2
3.465084947E0,4.594829679E-2,-8.831644058E-2,-7.842826843E-2
3.470080936E0,5.295011401E-2,-8.501434326E-2,-9.103488922E-2
3.475076926E0,5.046482384E-2,-7.699203491E-2,-1.082849503E-1
3.480072915E0,4.792961478E-2,-5.944728851E-2,-1.206836700E-1
3.485068905E0,4.043196142E-2,-5.141019821E-2,-1.377859116E-1
3.490064895E0,3.273962438E-2,-1.960802078E-2,-1.310386658E-1
3.495060884E0,5.721688271E-3,1.686000824E-2,-1.291751862E-1
3.500056874E0,-1.690141857E-2,6.275129318E-2,-7.993984222E-2
3.505052863E0,-3.505119681E-2,8.949565887E-2,-5.970478058E-2
3.510048853E0,-4.885722697E-2,1.161074638E-1,2.206230164E-2
3.515044843E0,-3.456534445E-2,1.140532494E-1,9.364032745E-2
3.520040832E0,-2.023026347E-3,1.259365082E-1,2.170276642E-1
3.525036822E0,-3.383412957E-3,1.136097908E-1,3.015871048E-1
3.530032811E0,-9.571850300E-3,1.386814117E-1,3.667860031E-1
3.535028801E0,-2.036307752E-2,1.579184532E-1,4.128713608E-1
3.540024790E0,-2.149558067E-2,1.760258675E-1,4.258031845E-1
3.545020780E0,6.059274077E-3,1.738801003E-1,4.059257507E-1
3.550016770E0,1.941740513E-2,1.565341949E-1,3.439493179E-1
3.555012759E0,-3.192126751E-4,1.621980667E-1,2.544260025E-1
3.560008749E0,-9.952187538E-3,1.387267113E-1,1.374473572E-1
3.565004738E0,-9.450078011E-3,1.149954796E-1,2.668380737E-3
3.570000728E0,1.048204303E-2,9.142112732E-2,-1.167211533E-1
3.574996718E0,3.048002720E-2,9.211635590E-2,-2.257766724E-1
3.579992707E0,5.540636182E-2,1.028623581E-1,-3.152036667E-1
3.584988697E0,3.766484559E-2,1.048116684E-1,-3.757820129E-1
3.589984686E0,4.895351827E-2,1.029243469E-1,-4.268217087E-1
3.594980676E0,4.624700546E-2,9.252643585E-2,-4.446792603E-1
3.599976665E0,4.858656228E-2,8.797979355E-2,-4.201602936E-1
3.604972655E0,2.252939343E-2,7.973623276E-2,-3.963508606E-1
3.609968645E0,-3.472700715E-3,6.768655777E-2,-3.494262695E-1
3.614964634E0,-3.912369907E-2,5.651998520E-2,-2.937784195E-1
3.619960624E0,-7.007431984E-2,4.134225845E-2,-2.104187012E-1
3.624956613E0,-8.227878809E-2,4.570150375E-2,-1.421957016E-1
3.629952603E0,-9.029936790E-2,4.555368423E-2,-3.667831421E-2
3.634948593E0,-9.910309315E-2,5.016088486E-2,8.222198486E-2
3.639944634E0,-1.037972569E-1,5.436706543E-2,2.050762177E-1
3.644940676E0,-1.091188490E-1,4.370021820E-2,3.272180557E-1
3.649936718E0,-8.631935716E-2,2.746057510E-2,3.728332520E-1
3.654932759E0,-7.311581075E-2,-2.284288406E-2,3.663139343E-1
3.659928801E0,-3.609684110E-2,-6.419038773E-2,3.223390579E-1
3.664924843E0,1.056972146E-2,-7.743597031E-2,2.600955963E-1
3.669920884E0,4.317592084E-2,-5.331754684E-2,1.559934616E-1
3.674916926E0,5.231906474E-2,-2.502059937E-2,7.667827606E-2
3.679912968E0,6.172993779E-2,1.701021194E-2,-1.133823395E-2
3.684909009E0,5.688530207E-2,4.919338226E-2,-6.062984467E-2
3.689905051E0,5.164438486E-2,5.261659622E-2,-1.094951630E-1
3.694901093E0,1.265588403E-2,4.665470123E-2,-1.200180054E-1
3.699897134E0,2.574241161E-2,7.412481308E-2,-1.210136414E-1
3.704893176E0,2.419716120E-2,8.247041702E-2,-1.410331726E-1
3.709889218E0,4.631255567E-2,7.194471359E-2,-1.799707413E-1
3.714885259E0,8.737260103E-2,1.877689362E-2,-2.185859680E-1
3.719881301E0,1.283859164E-1,-1.946687698E-2,-2.664985657E-1
3.724877343E0,1.457493752E-1,-4.282331467E-2,-3.094339371E-1
3.729873384E0,1.444551945E-1,-3.233480453E-2,-3.332376480E-1
3.734869426E0,1.389510036E-1,-2.613639832E-2,-3.191432953E-1
3.739865468E0,9.575806558E-2,-9.902000427E-3,-3.244676590E-1
3.744861509E0,7.180452347E-2,-2.659797668E-3,-2.920827866E-1
3.749857551E0,2.882887423E-2,9.908199310E-3,-2.318000793E-1
3.754853593E0,4.726290703E-3,1.812458038E-2,-1.770153046E-1
3.759849634E0,-7.735937834E-4,2.668142319E-2,-1.038894653E-1
3.764845676E0,1.221874356E-2,3.073787689E-2,-4.576969147E-2
3.769841718E0,3.419058025E-2,2.060461044E-2,7.081985474E-3
3.774837759E0,7.483923435E-2,-8.442401886E-3,4.050445557E-2
3.779833801E0,1.105860025E-1,-2.318859100E-2,5.474758148E-2
3.784829843E0,1.415864676E-1,-3.329706192E-2,4.049396515E-2
3.789825884E0,1.348011494E-1,-5.296278000E-2,3.116989136E-2
3.794821926E0,1.380963176E-1,-4.886198044E-2,-1.758575439E-3
3.799817968E0,1.086969823E-1,-4.005002975E-2,-4.392337799E-2
3.804814009E0,7.999882102E-2,-3.619670868E-2,-5.243778229E-2
3.809810051E0,9.473089874E-2,-3.707599640E-2,-1.036548615E-1
3.814806093E0,9.084621072E-2,-2.840328217E-2,-1.687269211E-1
3.819802134E0,1.255742759E-1,-3.391075134E-2,-2.095985413E-1
3.824798176E0,1.415213346E-1,-2.015256882E-2,-2.502593994E-1
3.829794218E0,1.247347891E-1,-1.094055176E-2,-2.812633514E-1
3.834790259E0,1.085679531E-1,-1.103258133E-2,-3.074121475E-1
3.839786301E0,5.965967476E-2,-1.550769806E-2,-3.430347443E-1
3.844782343E0,2.108801901E-2,-2.903366089E-2,-3.643360138E-1
3.849778384E0,-7.531598210E-3,-4.687452316E-2,-3.713798523E-1
3.854774426E0,-2.162466943E-2,-2.616739273E-2,-3.880729675E-1
3.859770468E0,-4.975616932E-2,-1.472043991E-2,-3.526048660E-1
3.864766509E0,-3.500878811E-2,-1.250171661E-2,-3.318605423E-1
3.869762551E0,-4.428611696E-2,-1.477861404E-2,-2.829322815E-1
3.874758593E0,-5.850805342E-2,6.933689117E-3,-2.630100250E-1
3.879754634E0,-8.251661062E-2,2.389621735E-2,-2.480850220E-1
3.884750676E0,-7.833452523E-2,1.236295700E-2,-2.190971375E-1
3.889746718E0,-6.528152525E-2,5.804395676E-2,-1.761627197E-1
3.894742759E0,-4.361177981E-2,8.444023132E-2,-1.146211624E-1
3.899738749E0,-3.707075119E-2,1.106595993E-1,-4.410266876E-2
3.904734738E0,-3.596659005E-2,1.365213394E-1,1.166629791E-2
3.909730728E0,-2.585028112E-2,1.525321007E-1,6.705093384E-2
3.914726718E0,7.424935699E-3,1.396450996E-1,1.126289368E-1
3.919722707E0,3.515136242E-2,1.265921593E-1,1.389827728E-1
3.924718697E0,5.289956927E-2,1.181688309E-1,1.652402878E-1
3.929714686E0,5.627715588E-2,1.284904480E-1,1.676998138E-1
3.934710676E0,5.989934504E-2,1.385436058E-1,1.559820175E-1
3.939706665E0,4.486018419E-2,1.435847282E-1,1.539449692E-1
3.944702655E0,3.519460559E-2,1.437458992E-1,1.377162933E-1
3.949698645E0,2.154217660E-2,1.437726021E-1,1.311750412E-1
3.954694634E0,3.729167581E-2,1.438002586E-1,1.104278564E-1
3.959690624E0,3.466661274E-2,1.343340874E-1,9.458827972E-2
3.964686613E0,4.229032993E-2,1.296496391E-1,7.414340973E-2
3.969682603E0,1.711191237E-2,1.201663017E-1,4.440975189E-2
3.974678593E0,-7.492601871E-3,9.177017212E-2,2.441501617E-2
3.979674582E0,1.483455300E-3,6.822443008E-2,-9.250640869E-5
3.984670572E0,-1.819951832E-2,4.958105087E-2,-2.911949158E-2
3.989666561E0,-3.801652789E-2,5.483770370E-2,-4.365348816E-2
3.994662551E0,-6.762263179E-2,4.566955566E-2,-3.899383545E-2
3.999658540E0,-6.915408373E-2,2.694606781E-2,-5.803585052E-2
4.004654530E0,-9.044453502E-2,8.198738098E-3,-8.156204224E-2
4.009650520E0,-9.815882891E-2,8.285522461E-3,-8.097648621E-2
4.014646509E0,-8.266048133E-2,8.144378662E-3,-9.451675415E-2
4.019642499E0,-7.731563598E-2,3.077030182E-3,-1.125936508E-1
4.024638488E0,-4.377691448E-2,-2.103137970E-2,-1.542119980E-1
4.029634478E0,-2.026718110E-2,-2.589750290E-2,-1.812591553E-1
4.034630468E0,2.954296768E-3,-3.067588806E-2,-2.318468094E-1
4.039626457E0,1.180575043E-2,-2.085065842E-2,-2.631826401E-1
4.044622447E0,2.533199638E-2,-6.040096283E-3,-2.896738052E-1
4.049618436E0,2.927196771E-2,-5.188941956E-3,-2.829122543E-1
4.054614426E0,3.338475525E-2,-3.981113434E-3,-3.048896790E-1
4.059610415E0,2.821742743E-2,-1.671123505E-2,-3.173532486E-1
4.064606405E0,4.726881534E-2,-4.317140579E-2,-3.156824112E-1
4.069602395E0,3.814904392E-2,-5.950546265E-2,-2.810010910E-1
4.074598384E0,5.341846496E-2,-7.054758072E-2,-2.183332443E-1
4.079594374E0,1.024840921E-1,-6.209564209E-2,-1.706514359E-1
4.084590363E0,1.233126894E-1,-4.865074158E-2,-1.330337524E-1
4.089586353E0,1.207747757E-1,-2.084875107E-2,-8.160305023E-2
4.094582343E0,7.586585730E-2,-2.595901489E-3,-5.918502808E-2
4.099578332E0,1.717825979E-2,1.545953751E-2,-1.318550110E-2
4.104574322E0,-2.225318551E-2,3.336477280E-2,8.693695068E-3
4.109570311E0,-3.797715157E-2,8.339881897E-3,-7.566452026E-3
4.114566301E0,-3.984896094E-2,-3.076505661E-2,-3.315734863E-2
4.119562290E0,-3.734380752E-2,-5.534315109E-2,-3.951072693E-2
4.124558280E0,-3.988164291E-2,-7.953214645E-2,-3.640174866E-2
4.129554270E0,-1.397492737E-2,-7.018852234E-2,-2.861309052E-2
4.134550259E0,-1.193492115E-2,-2.275180817E-2,7.511138916E-3
4.139546249E0,1.401407272E-2,1.972293854E-2,4.799270630E-2
4.144542238E0,2.568569034E-2,4.773378372E-2,9.756660461E-2
4.149538228E0,4.181794822E-3,7.573890686E-2,1.513633728E-1
4.154534218E0,-1.720993221E-2,9.405946732E-2,1.856994629E-1
4.159530259E0,-2.919958532E-2,9.798336029E-2,2.624912262E-1
4.164526301E0,-1.780310273E-2,1.206870079E-1,3.434906006E-1
4.169522343E0,7.310040295E-3,1.522431374E-1,4.003086090E-1
4.174518384E0,3.311246634E-3,1.545443535E-1,4.331674576E-1
4.179514426E0,3.888234496E-3,1.655931473E-1,4.423789978E-1
4.184510468E0,4.300035536E-3,1.614818573E-1,4.186868668E-1
4.189506509E0,-4.994772375E-3,1.424279213E-1,3.765659332E-1
4.194502551E0,-2.402987331E-2,1.419339180E-1,3.113527298E-1
4.199498593E0,-2.414143085E-2,1.551418304E-1,2.517061234E-1
4.204494634E0,-2.457298338E-2,1.678752899E-1,1.927423477E-1
4.209490676E0,-1.103057712E-2,1.516470909E-1,1.154603958E-1
4.214486718E0,2.132420987E-2,1.401667595E-1,6.738090515E-2
4.219482759E0,2.978153527E-2,1.240348816E-1,1.020431519E-2
4.224478801E0,4.305447638E-2,1.318726540E-1,-2.754878998E-2
4.229474843E0,4.710973054E-2,1.255846024E-1,-5.558681488E-2
4.234470884E0,3.254999220E-2,1.242361069E-1,-9.770965576E-2
4.239466926E0,4.706110060E-2,1.184263229E-1,-1.491212845E-1
4.244462968E0,3.809838742E-2,9.385538101E-2,-1.764574051E-1
4.249459009E0,3.441720456E-2,7.455873489E-2,-2.274742126E-1
4.254455051E0,4.037795216E-2,3.684234619E-2,-2.925167084E-1
4.259451093E0,4.174658656E-2,3.788471222E-2,-3.002662659E-1
4.264447134E0,2.982616425E-4,5.846261978E-2,-3.034772873E-1
4.269443176E0,-1.713097468E-2,6.051492691E-2,-2.784900665E-1
4.274439218E0,-3.950707242E-2,6.305265427E-2,-2.397136688E-1
4.279435259E0,-5.249733850E-2,4.703235626E-2,-1.445035934E-1
4.284431301E0,-5.152298883E-2,4.100894928E-2,-7.400798798E-2
4.289427343E0,-5.064813420E-2,1.147603989E-2,-4.187583923E-3
4.294423384E0,-4.516916722E-2,5.886554718E-3,4.133415222E-2
4.299419426E0,-4.452998936E-2,3.437995911E-4,8.647918701E-2
4.304415468E0,-5.346168578E-2,-5.335330963E-3,1.360902786E-1
4.309411509E0,-6.738832593E-2,7.752895355E-3,1.854286194E-1
4.314407551E0,-5.305216461E-2,1.100635529E-2,2.297258377E-1
4.319403593E0,-4.867665842E-2,1.856994629E-2,2.738628387E-1
4.324399634E0,-3.023005277E-2,2.561235428E-2,2.941188812E-1
4.329395676E0,-4.052029550E-2,3.693151474E-2,3.144130707E-1
4.334391718E0,-3.179974854E-2,3.345203400E-2,3.252677917E-1
4.339387759E0,-1.851837337E-2,1.529741287E-2,2.887744904E-1
4.344383801E0,-4.614144564E-4,1.675128937E-3,2.717609406E-1
4.349379843E0,3.185174614E-2,1.163339615E-2,2.265329361E-1
4.354375884E0,6.426317245E-2,-1.205396652E-2,1.865873337E-1
4.359371926E0,7.291488349E-2,6.916522980E-3,1.566057205E-1
4.364367968E0,7.238858193E-2,-1.714658737E-2,1.221895218E-1
4.369364009E0,8.184756339E-2,-1.731204987E-2,9.282779694E-2
4.374359999E0,1.013683155E-1,-3.186130524E-2,4.952907562E-2
4.379355988E0,1.069869623E-1,-3.190660477E-2,2.076339722E-2
4.384351978E0,8.920683712E-2,-3.186082840E-2,1.118469238E-2
4.389347968E0,8.139306307E-2,-1.734066010E-2,-1.742267609E-2
4.394343957E0,6.889522076E-2,-2.189064026E-2,-7.825851440E-3
4.399339947E0,5.624787509E-2,-4.055595398E-2,-1.259803772E-2
4.404335936E0,2.420525253E-2,-5.427169800E-2,6.393432617E-3
4.409331926E0,1.373939216E-3,-5.842161179E-2,3.949928284E-2
4.414327915E0,-2.572163939E-3,-6.267452240E-2,4.390811920E-2
4.419323905E0,2.966240048E-3,-4.333353043E-2,5.311965942E-2
4.424319895E0,-1.041999459E-2,-1.963520050E-2,5.761814117E-2
4.429315884E0,1.438615099E-2,-1.047086716E-2,4.787826538E-2
4.434311874E0,5.676668137E-3,-2.037763596E-2,1.922702789E-2
4.439307863E0,2.550674230E-2,-3.495121002E-2,1.455783844E-2
4.444303853E0,7.159534842E-3,-4.447126389E-2,-4.407882690E-3
4.449299843E0,-1.596886665E-2,-2.528429031E-2,4.606246948E-4
4.454295832E0,-5.349586159E-2,-6.119251251E-3,1.471900940E-2
4.459291822E0,-7.678709924E-2,-1.085662842E-2,3.361034393E-2
4.464287811E0,-8.570751548E-2,-2.514314651E-2,4.289245605E-2
4.469283801E0,-6.124468148E-2,-2.999734879E-2,5.693531036E-2
4.474279790E0,-3.682412580E-2,-3.960561752E-2,7.088279724E-2
4.479275780E0,-3.137136996E-2,-5.392885208E-2,5.624485016E-2
4.484271770E0,-1.632883772E-2,-3.973388672E-2,4.177379608E-2
4.489267759E0,-2.492442727E-2,-1.616048813E-2,4.166793823E-2
4.494263749E0,-3.810536861E-2,1.201009750E-2,2.254581451E-2
4.499259738E0,-4.631306231E-2,2.570009232E-2,-1.166343689E-3
4.504255728E0,-5.452175066E-2,4.872703552E-2,-1.515960693E-2
4.509251718E0,-6.296047568E-2,4.777479172E-2,8.975028992E-3
4.514247707E0,-7.153582573E-2,3.733396530E-2,-3.299713135E-4
4.519243697E0,-7.561241090E-2,2.214050293E-2,-3.800106049E-2
4.524239686E0,-7.504346967E-2,1.177644730E-2,-5.634212494E-2
4.529235676E0,-7.461623847E-2,-7.950782776E-3,-8.404827118E-2
4.534231665E0,-4.083646089E-2,-2.267122269E-2,-1.068229675E-1
4.539227655E0,-1.644346863E-2,9.946823120E-4,-1.342945099E-1
4.544223645E0,-2.035428025E-2,5.699634552E-3,-9.517288208E-2
4.549219634E0,-3.352266178E-2,2.493286133E-2,-7.078361511E-2
4.554215624E0,-5.128436536E-2,2.044677734E-2,-2.294635773E-2
4.559211613E0,-5.944764614E-2,2.577066422E-2,2.435684204E-2
4.564207603E0,-6.290974468E-2,1.675891876E-2,9.028339386E-2
4.569203593E0,-7.132165134E-2,3.156471252E-2,1.176738739E-1
4.574199582E0,-8.464159071E-2,2.227497101E-2,1.402025223E-1
4.579195572E0,-6.961190701E-2,1.762723923E-2,1.578865051E-1
4.584191561E0,-5.977784470E-2,3.648519516E-2,1.375722885E-1
4.589187551E0,-6.934167445E-2,3.107500076E-2,1.318559647E-1
4.594183540E0,-7.451419532E-2,2.548027039E-2,9.306335449E-2
4.599179530E0,-7.526265085E-2,2.915334702E-2,6.422805786E-2
4.604175520E0,-8.114427328E-2,1.841306686E-2,6.419372559E-2
4.609171509E0,-5.892287940E-2,7.624149323E-3,4.998588562E-2
4.614167499E0,-1.335132495E-2,-7.961273193E-3,4.546260834E-2
4.619163488E0,1.293856278E-2,-2.816486359E-2,1.723480225E-2
4.624159478E0,2.490210906E-2,-4.349708557E-2,1.775646210E-2
4.629155468E0,6.534911692E-2,-3.975296021E-2,-6.971359253E-4
4.634151457E0,8.183151484E-2,-4.078865051E-2,-4.752159119E-3
4.639147447E0,9.822218120E-2,-4.190826416E-2,-1.347446442E-2
4.644143436E0,9.084826708E-2,-4.306507111E-2,-3.159904480E-2
4.649139426E0,6.947372109E-2,-2.517318726E-2,-4.959583282E-2
4.654135415E0,6.256812811E-2,-3.601455688E-2,-6.264686584E-2
4.659131405E0,3.677190840E-2,-4.667329788E-2,-8.987998962E-2
4.664127395E0,2.543637902E-2,-6.664800644E-2,-1.026859283E-1
4.669123384E0,9.377844632E-3,-8.641052246E-2,-1.154069901E-1
4.674119374E0,7.537670434E-3,-1.011223793E-1,-9.010028839E-2
4.679115363E0,1.027753949E-2,-8.708190918E-2,-6.981945038E-2
4.684111353E0,-6.252020597E-3,-7.763051987E-2,-2.609920502E-2
4.689107343E0,-2.748420462E-2,-6.816625595E-2,2.966880798E-3
4.694103332E0,-1.518470049E-2,-8.238458633E-2,2.697277069E-2
4.699099322E0,-2.780511975E-3,-8.689498901E-2,3.648567200E-2
4.704095311E0,9.704299271E-3,-9.132194519E-2,6.488800049E-2
4.709091301E0,8.092351258E-3,-1.003227234E-1,5.499553680E-2
4.714087343E0,-1.701907068E-2,-8.066654205E-2,4.988670349E-2
4.719083384E0,-5.109659210E-2,-6.578588486E-2,4.949855804E-2
4.724079426E0,-3.717551008E-2,-4.148626328E-2,3.484344482E-2
4.729075468E0,-5.165461823E-2,-4.104042053E-2,4.400539398E-2
4.734071509E0,-3.265915811E-2,-2.630758286E-2,5.306720734E-2
4.739067551E0,-2.797630802E-2,-4.023694992E-2,5.732917786E-2
4.744063593E0,-2.314886451E-2,-3.044652939E-2,4.262828827E-2
4.749059634E0,-1.810916513E-2,-2.567195892E-2,3.288745880E-2
4.754055676E0,-1.781434566E-2,-2.587032318E-2,4.325866699E-3
4.759051718E0,-4.615101218E-2,-4.040479660E-2,-5.719089508E-2
4.764047759E0,-6.970986724E-2,-3.577756882E-2,-1.229639053E-1
4.769043801E0,-8.855344355E-2,-7.445335388E-3,-1.454505920E-1
4.774039843E0,-9.808729589E-2,3.033304214E-2,-1.583423615E-1
4.779035884E0,-1.220622212E-1,3.949165344E-2,-1.474733353E-1
4.784031926E0,-9.860457480E-2,3.917074203E-2,-1.224937439E-1
4.789027968E0,-8.511442691E-2,2.944850922E-2,-8.351993561E-2
4.794024009E0,-7.678341866E-2,3.405427933E-2,-3.062343597E-2
4.799020051E0,-4.980332404E-2,1.474189758E-2,-1.839637756E-3
4.804016093E0,-5.179174244E-2,-1.408958435E-2,1.730346680E-2
4.809012134E0,-6.367404014E-2,-3.332090378E-2,3.161048889E-2
4.814008176E0,-5.217427760E-2,-3.832912445E-2,5.539226532E-2
4.819004218E0,-5.533773452E-2,-4.841184616E-2,4.592323303E-2
4.824000259E0,-3.989425302E-2,-2.060556412E-2,-3.934574127E-2
4.828996301E0,-2.967195958E-2,1.185750961E-2,-9.547710419E-2
4.833992343E0,-6.722544134E-2,3.944301605E-2,-1.274633408E-1
4.838988384E0,-1.403639466E-2,5.255222321E-3,-1.402826309E-1
4.843984426E0,7.722602040E-2,-1.421928406E-2,-1.530904770E-1
4.848980468E0,1.397423446E-1,-5.220603943E-2,-1.137218475E-1
4.853976509E0,1.974253505E-1,-6.586074829E-2,-5.582714081E-2
4.858972551E0,2.077163756E-1,-2.233123779E-2,-1.745986938E-2
4.863968593E0,1.806683391E-1,1.133680344E-2,3.007411957E-2
4.868964634E0,1.214104444E-1,6.362915039E-2,6.774711609E-2
4.873960676E0,1.299526691E-1,6.786584854E-2,1.194057465E-1
4.878956718E0,1.774222106E-1,3.384780884E-2,1.612358093E-1
4.883952759E0,1.733646244E-1,-2.870464325E-2,1.886186600E-1
4.888948801E0,-9.157292545E-2,1.332092285E-2,2.207212448E-1
4.893944790E0,-6.024352312E-1,1.737484932E-1,7.211303711E-2
4.898940780E0,-5.871794224E-1,2.245030403E-1,-5.669212341E-2
4.903936770E0,-2.633253932E-1,9.976482391E-2,-5.177783966E-2
4.908932759E0,5.785398185E-2,-4.935264587E-3,-1.841640472E-2
4.913928749E0,3.149231672E-1,-1.139397621E-1,1.012897491E-2
4.918924738E0,4.087878466E-1,-1.417970657E-1,5.766582489E-2
4.923920728E0,3.830841780E-1,-1.083626747E-1,1.193866730E-1
4.928916718E0,2.192180306E-1,-3.327131271E-2,1.430130005E-1
4.933912707E0,6.559112668E-2,2.158975601E-2,9.552860260E-2
4.938908697E0,-6.838358939E-2,3.763198853E-2,5.338478088E-2
4.943904686E0,-1.210694537E-1,3.915739059E-2,-5.955791473E-2
4.948900676E0,-1.644170731E-1,-2.553272247E-2,-1.764354706E-1
4.953896665E0,-1.554686874E-1,-1.129660606E-1,-2.640724182E-1
4.958892655E0,-1.186086535E-1,-1.989359856E-1,-3.228473663E-1
4.963888645E0,-1.160519272E-1,-2.313580513E-1,-3.624267578E-1
4.968884634E0,-1.332663298E-1,-2.438673973E-1,-3.829927444E-1
4.973880624E0,-1.320983469E-1,-2.129745483E-1,-3.989057541E-1
4.978876613E0,-9.327085316E-2,-1.959767342E-1,-3.912410736E-1
4.983872603E0,-3.095313907E-2,-1.738095284E-1,-3.696746826E-1
4.988868593E0,1.407965124E-1,-5.136585236E-2,-3.106784821E-1
4.993864582E0,3.071014881E-1,3.769207001E-2,-2.383766174E-1
4.998860572E0,2.916478515E-1,6.957817078E-2,-1.337099075E-1
5.003856561E0,1.673379689E-1,3.513288498E-2,-1.440858841E-1
5.008852551E0,6.379266083E-2,-1.751661301E-2,-1.878767014E-1
5.013848540E0,3.332440555E-2,-5.009603500E-2,-2.078914642E-1
5.018844530E0,3.724443913E-2,-1.501560211E-2,-1.664743423E-1
5.023840520E0,6.551715732E-2,6.309890747E-2,-4.022979736E-2
5.028836509E0,7.029379904E-2,1.267700195E-1,1.132268906E-1
5.033832499E0,5.176939070E-2,1.283111572E-1,2.463436127E-1
5.038828488E0,5.785177648E-2,1.152195930E-1,4.070205688E-1
5.043824478E0,6.498517096E-2,1.585264206E-1,4.717149734E-1
5.048820468E0,4.003575444E-2,8.201742172E-2,5.552120209E-1
5.053816457E0,6.823860109E-2,2.891397476E-2,6.669759750E-1
5.058812447E0,7.762372494E-2,7.951545715E-2,7.499036789E-1
5.063808436E0,3.464950621E-2,6.182861328E-2,7.568483353E-1
5.068804426E0,-8.472934365E-3,7.125616074E-2,6.837654114E-1
5.073800415E0,-3.811964393E-2,1.265668869E-1,5.645694733E-1
5.078796405E0,-1.687601209E-2,1.753311157E-1,4.185562134E-1
5.083792395E0,7.373547554E-2,1.655550003E-1,2.838468552E-1
5.088788384E0,1.570667326E-1,1.930646896E-1,1.601705551E-1
5.093784374E0,1.763087660E-1,2.151317596E-1,7.102298737E-2
5.098780363E0,2.225164026E-1,2.415719032E-1,2.073001862E-2
5.103776353E0,2.427698374E-1,3.010201454E-1,2.788543701E-2
5.108772343E0,2.749027014E-1,3.692636490E-1,4.463386536E-2
5.113768332E0,2.854177952E-1,4.319772720E-1,6.141376495E-2
5.118764322E0,2.845501900E-1,4.224905968E-1,9.258651733E-2
5.123760311E0,2.919700742E-1,3.792510033E-1,7.636833191E-2
5.128756301E0,2.891729474E-1,2.977414131E-1,7.965183258E-2
5.133752290E0,2.725608647E-1,1.970000267E-1,8.339023590E-2
5.138748280E0,2.625134885E-1,1.197004318E-1,1.398878098E-1
5.143744270E0,2.505393624E-1,1.323938370E-2,2.060194016E-1
5.148740259E0,2.179119289E-1,-1.029915810E-1,2.103824615E-1
5.153736249E0,1.355731487E-1,-1.761603355E-1,1.817436218E-1
5.158732238E0,1.767352223E-2,-2.490291595E-1,1.107244492E-1
5.163728228E0,-7.397100329E-2,-3.022761345E-1,3.075695038E-2
5.168724218E0,-1.447922587E-1,-3.166470528E-1,-4.878711700E-2
5.173720207E0,-2.571570277E-1,-3.206348419E-1,-1.138162613E-1
5.178716197E0,-3.491755426E-1,-3.330912590E-1,-1.550703049E-1
5.183712186E0,-3.927363753E-1,-3.681445122E-1,-1.632690430E-1
5.188708176E0,-4.124924541E-1,-3.970255852E-1,-1.719608307E-1
5.193704165E0,-4.849405885E-1,-4.337611198E-1,-1.860237122E-1
5.198700155E0,-5.146745443E-1,-4.828035831E-1,-1.912879944E-1
5.203696145E0,-4.970540702E-1,-5.250108242E-1,-2.258520126E-1
5.208692134E0,-5.174230337E-1,-5.556910038E-1,-2.135124207E-1
5.213688124E0,-5.134623647E-1,-5.275013447E-1,-1.593942642E-1
5.218684113E0,-4.802842140E-1,-4.982330799E-1,-7.793521881E-2
5.223680103E0,-4.272378087E-1,-4.681737423E-1,-1.671409607E-2
5.228676093E0,-3.593688011E-1,-4.615395069E-1,6.742000580E-2
5.233672082E0,-3.151733577E-1,-4.688704014E-1,1.269264221E-1
5.238668072E0,-2.759825885E-1,-4.569523335E-1,1.478509903E-1
5.243664061E0,-2.373692095E-1,-4.308359623E-1,1.211023331E-1
5.248660051E0,-2.468581498E-1,-3.955287933E-1,8.513736725E-2
5.253656040E0,-2.708325088E-1,-3.131632805E-1,5.430126190E-2
5.258652030E0,-2.856123745E-1,-2.744445801E-1,1.910305023E-2
5.263648020E0,-2.867788672E-1,-2.648530006E-1,1.761817932E-2
5.268644009E0,-2.459996492E-1,-2.462515831E-1,6.876945496E-3
5.273639999E0,-2.349894345E-1,-2.282581329E-1,1.547241211E-2
5.278635988E0,-1.772723049E-1,-2.299537659E-1,1.004314423E-2
5.283631978E0,-1.442357898E-1,-2.465195656E-1,-1.400089264E-2
5.288627968E0,-1.307423562E-1,-2.397542000E-1,-3.756046295E-2
5.293623957E0,-1.460578740E-1,-2.240962982E-1,-6.064224243E-2
5.298619947E0,-1.615426242E-1,-2.136378288E-1,-8.811092377E-2
5.303615936E0,-2.199321538E-1,-2.129449844E-1,-1.057538986E-1
5.308611926E0,-2.877208889E-1,-2.312955856E-1,-1.564569473E-1
5.313607915E0,-3.457912803E-1,-2.398986816E-1,-1.972808838E-1
5.318603905E0,-3.655961454E-1,-2.576446533E-1,-1.904172897E-1
5.323599895E0,-3.711965978E-1,-2.513079643E-1,-1.979475021E-1
5.328595884E0,-3.719795942E-1,-2.446007729E-1,-1.913833618E-1
5.333591874E0,-3.488315940E-1,-2.330040932E-1,-1.802282333E-1
5.338587863E0,-3.065629005E-1,-2.212181091E-1,-1.693181992E-1
5.343583853E0,-2.502409220E-1,-1.807541847E-1,-1.633949280E-1
5.348579843E0,-1.942739338E-1,-1.451358795E-1,-1.339015961E-1
5.353575832E0,-1.529719979E-1,-8.104372025E-2,-9.529876709E-2
5.358571822E0,-1.167161018E-1,-1.250267029E-2,-6.663322449E-2
5.363567811E0,-6.172160804E-2,4.606580734E-2,-4.775142670E-2
5.368563801E0,-2.124679089E-2,9.021997452E-2,-3.394031525E-2
5.373559790E0,5.729155242E-2,1.295289993E-1,-1.564121246E-2
5.378555780E0,9.305776656E-2,1.450819969E-1,-4.040527344E-2
5.383551770E0,1.151049882E-1,1.420083046E-1,-4.149150848E-2
5.388547759E0,1.427479088E-1,1.488618851E-1,-2.855396271E-2
5.393543749E0,1.570834965E-1,1.702151299E-1,-2.066040039E-2
5.398539738E0,1.391604692E-1,1.916551590E-1,3.923892975E-2
5.403535728E0,1.315960288E-1,2.035942078E-1,9.378623962E-2
5.408531718E0,1.056302637E-1,2.153787613E-1,1.573905945E-1
5.413527759E0,7.504443824E-2,2.174715996E-1,2.205190659E-1
5.418523801E0,5.855046213E-2,2.287669182E-1,2.975187302E-1
5.423519843E0,6.534419954E-2,2.205600739E-1,3.313655853E-1
5.428515884E0,9.541408718E-2,2.023735046E-1,3.414754868E-1
5.433511926E0,1.341596097E-1,1.932406425E-1,3.233222961E-1
5.438507968E0,1.770570874E-1,1.741824150E-1,3.008298874E-1
5.443504009E0,2.241171449E-1,2.022619247E-1,2.597904205E-1
5.448500051E0,2.658761144E-1,2.201938629E-1,2.050580978E-1
5.453496093E0,3.072177768E-1,2.282452583E-1,1.461524963E-1
5.458492134E0,3.196770549E-1,2.265858650E-1,1.258001328E-1
5.463488176E0,3.034487069E-1,2.248854637E-1,1.008987427E-1
5.468484218E0,3.203873634E-1,2.136917114E-1,9.995651245E-2
5.473480259E0,2.943553925E-1,1.786999702E-1,1.180925369E-1
5.478476301E0,2.779677510E-1,1.344914436E-1,1.218395233E-1
5.483472343E0,2.332940251E-1,8.575677872E-2,1.208782196E-1
5.488468384E0,2.176441848E-1,4.682731628E-2,9.147834778E-2
5.493464426E0,1.453724653E-1,-6.117343903E-3,9.560394287E-2
5.498460468E0,7.411678135E-2,-6.816434860E-2,4.272460938E-2
5.503456509E0,2.751937509E-2,-1.154460907E-1,-4.975318909E-3
5.508452551E0,-1.375699043E-2,-1.527371407E-1,-7.132625580E-2
5.513448593E0,-5.927655101E-2,-1.657834053E-1,-1.277275085E-1
5.518444634E0,-9.973649681E-2,-1.690721512E-1,-1.599884033E-1
5.523440676E0,-1.258197278E-1,-1.530056000E-1,-1.921415329E-1
5.528436718E0,-1.332417279E-1,-1.130843163E-1,-1.386613846E-1
5.533432759E0,-5.570183694E-2,-4.517602921E-2,8.067131042E-2
5.538428801E0,9.726075828E-2,-1.668834686E-2,3.081016541E-1
5.543424843E0,1.585897505E-1,-8.532524109E-3,3.300037384E-1
5.548420884E0,2.143138647E-1,2.233171463E-2,2.714891434E-1
5.553416926E0,1.979078650E-1,6.644582748E-2,1.521120071E-1
5.558412915E0,2.004234642E-1,1.049818993E-1,2.921962738E-2
5.563408905E0,2.314983904E-1,1.429176331E-1,-4.027652740E-2
5.568404895E0,2.625873089E-1,1.516280174E-1,-6.150245667E-2
5.573400884E0,3.175014257E-1,1.741824150E-1,-4.915428162E-2
5.578396874E0,3.486267328E-1,1.677699089E-1,-1.777744293E-2
5.583392863E0,3.894248009E-1,1.799774170E-1,4.678440094E-2
5.588388853E0,3.971940875E-1,1.820192337E-1,1.443233490E-1
5.593384843E0,3.631726503E-1,1.879959106E-1,2.271823883E-1
5.598380832E0,2.823870778E-1,1.838622093E-1,1.244392395E-1
5.603376822E0,1.970230192E-1,1.794795990E-1,1.797199249E-2
5.608372811E0,9.222921729E-2,1.610741615E-1,-1.683855057E-1
5.613368801E0,5.696609616E-3,1.387710571E-1,-3.629884720E-1
5.618364790E0,-5.359652638E-2,1.037511826E-1,-5.280990601E-1
5.623360780E0,-7.137930393E-2,9.429407120E-2,-6.260805130E-1
5.628356770E0,-2.849887311E-2,8.653402328E-2,-6.148185730E-1
5.633352759E0,3.730645776E-2,7.077455521E-2,-5.426387787E-1
5.638348749E0,1.123106182E-1,5.625009537E-2,-4.051513672E-1
5.643344738E0,1.779244542E-1,6.157255173E-2,-2.454614639E-1
5.648340728E0,2.438851893E-1,5.766725540E-2,-9.203910828E-2
5.653336718E0,2.769055068E-1,6.812143326E-2,1.730155945E-2
5.658332707E0,2.677182257E-1,8.783626556E-2,1.210336685E-1
5.663328697E0,2.546851337E-1,1.164617538E-1,1.813545227E-1
5.668324686E0,2.426092625E-1,1.252965927E-1,1.844491959E-1
5.673320676E0,1.791568100E-1,1.049652100E-1,1.640577316E-1
5.678316665E0,1.216911972E-1,7.479953766E-2,1.060848236E-1
5.683312655E0,6.027552485E-2,3.493165970E-2,2.982425690E-2
5.688308645E0,6.117114425E-2,-1.437664032E-2,-1.716899872E-2
5.693304634E0,1.480230689E-2,-5.400514603E-2,-8.740329742E-2
5.698300624E0,-4.544946551E-2,-6.969642639E-2,-1.142444611E-1
5.703296613E0,-6.766924262E-2,-6.612205505E-2,-1.266727448E-1
5.708292603E0,-9.988832474E-2,-6.243419647E-2,-1.153059006E-1
5.713288593E0,-1.470937878E-1,-4.442787170E-2,-1.230468750E-1
5.718284582E0,-1.854165345E-1,-1.222562790E-2,-1.117458344E-1
5.723280572E0,-1.437042952E-1,5.567550659E-3,-1.243009567E-1
5.728276561E0,-6.510739028E-2,4.454612732E-3,-1.368465424E-1
5.733272551E0,-1.754730940E-3,2.723598480E-2,-9.711360931E-2
5.738268540E0,8.010968566E-2,4.037618637E-2,-8.147907257E-2
5.743264530E0,1.472994387E-1,3.440952301E-2,-7.547664642E-2
5.748260520E0,2.287245989E-1,4.734468460E-2,-7.738113403E-3
5.753256509E0,2.486343682E-1,7.413339615E-2,5.480289459E-2
5.758252499E0,2.505290210E-1,7.653331757E-2,7.426452637E-2
5.763248488E0,2.393780947E-1,4.520034790E-2,9.376621246E-2
5.768244478E0,2.674092054E-1,-8.597087860E-2,6.577682495E-2
5.773240468E0,1.445179284E-1,-7.379770279E-2,2.383518219E-2
5.778236457E0,-5.259174109E-2,1.414918900E-2,-2.247905731E-2
5.783232447E0,-1.912390888E-1,5.406618118E-2,-5.425071716E-2
5.788228436E0,-2.202968299E-1,3.704643250E-2,-7.167720795E-2
5.793224426E0,-2.026125938E-1,-2.694034576E-2,-5.112838745E-2
5.798220415E0,-1.811521053E-1,-8.531713486E-2,-4.513835907E-2
5.803216405E0,-1.843228936E-1,-8.096837997E-2,-7.267761230E-2
5.808212395E0,-1.691139638E-1,-8.103418350E-2,-9.066009521E-2
5.813208384E0,-1.638271958E-1,-6.169128418E-2,-4.221916199E-2
5.818204374E0,-1.585427076E-1,-5.665826797E-2,3.425598145E-2
5.823200363E0,-1.056864262E-1,-5.640602112E-2,7.209682465E-2
5.828196353E0,-7.676759362E-2,-6.103277206E-2,1.381711960E-1
5.833192343E0,-5.740849674E-2,-5.634593964E-2,1.658172607E-1
5.838188332E0,-7.134106755E-2,-4.242038727E-2,1.363601685E-1
5.843184322E0,-1.041789949E-1,-1.933336258E-2,8.352184296E-2
5.848180311E0,-1.273686439E-1,3.484249115E-3,3.591728210E-2
5.853176301E0,-7.008165121E-2,3.082847595E-2,-1.761436462E-3
5.858172290E0,1.002544761E-1,4.384326935E-2,-7.717514038E-2
5.863168280E0,2.878084481E-1,8.559322357E-2,-1.806211472E-1
5.868164270E0,3.407400846E-1,1.274766922E-1,-2.549610138E-1
5.873160259E0,2.793019414E-1,1.838731766E-1,-2.720222473E-1
5.878156249E0,1.946867406E-1,2.308354378E-1,-2.369861603E-1
5.883152238E0,1.152564883E-1,2.398214340E-1,-1.786994934E-1
5.888148228E0,2.653473616E-2,2.015233040E-1,-1.162767410E-1
5.893144218E0,-9.785175323E-3,1.495323181E-1,-4.972553253E-2
5.898140207E0,-1.767504215E-2,8.847761154E-2,-1.220512390E-2
5.903136197E0,-1.634210348E-2,2.788591385E-2,-3.450393677E-3
5.908132186E0,-1.515471935E-2,-1.814079285E-2,-4.161834717E-3
5.913128176E0,2.266764641E-4,-7.351446152E-2,3.799438477E-2
5.918124165E0,-3.443151712E-3,-9.076166153E-2,5.147552490E-2
5.923120155E0,-1.151081920E-2,-1.321110725E-1,1.761150360E-2
5.928116145E0,-2.393770218E-2,-1.352715492E-1,-6.339168549E-2
5.933112134E0,-4.066547751E-2,-1.289591789E-1,-1.199645996E-1
5.938108124E0,-2.853339911E-2,-1.415157318E-1,-1.714191437E-1
5.943104113E0,-4.935240746E-2,-1.252546310E-1,-1.940841675E-1
5.948100103E0,-5.520489812E-2,-1.041569710E-1,-1.549682617E-1
5.953096093E0,-6.984558702E-2,-8.305549622E-2,-1.257953644E-1
5.958092082E0,-6.959697604E-2,-9.523153305E-2,-8.271312714E-2
5.963088072E0,-6.412562728E-2,-9.767055511E-2,-2.108669281E-2
5.968084061E0,-7.251438498E-2,-6.680250168E-2,4.473304749E-2
5.973080051E0,-9.464934468E-2,-4.093408585E-2,7.674503326E-2
5.978076040E0,-8.777004480E-2,-5.915164948E-3,9.430027008E-2
5.983072030E0,-8.090722561E-2,1.448678970E-2,9.275627136E-2
5.988068020E0,-6.935429573E-2,3.938007355E-2,1.055154800E-1
5.993064009E0,-4.385882616E-2,5.439233780E-2,1.230163574E-1
5.998059999E0,-3.295585513E-2,5.475759506E-2,1.120300293E-1
6.003055988E0,-6.042647362E-2,7.388448715E-2,1.250076294E-1
6.008051978E0,-7.856017351E-2,9.742355347E-2,1.427326202E-1
6.013047968E0,-1.064054221E-1,1.062517166E-1,1.889543533E-1
6.018043957E0,-1.297065765E-1,1.193990707E-1,2.207469940E-1
6.023039947E0,-1.437312663E-1,1.035013199E-1,2.525205612E-1
6.028035936E0,-1.437662244E-1,9.679508209E-2,2.747735977E-1
6.033031926E0,-1.202020049E-1,8.495473862E-2,2.780818939E-1
6.038027915E0,-1.018176526E-1,7.281732559E-2,2.198467255E-1
6.043023905E0,-9.329521656E-2,7.010793686E-2,1.194572449E-1
6.048019895E0,-5.158665776E-2,9.121799469E-2,1.987648010E-2
6.053015884E0,-4.358261824E-2,9.818696976E-2,-7.901477814E-2
6.058011874E0,-1.669955254E-2,1.340036392E-1,-1.440553665E-1
6.063007863E0,5.119025707E-3,1.415777206E-1,-1.660957336E-1
6.068003853E0,3.145989776E-2,1.399993896E-1,-1.644201279E-1
6.072999843E0,4.804193974E-2,1.197519302E-1,-1.439247131E-1
6.077995832E0,5.496850610E-2,8.094787598E-2,-1.094923019E-1
6.082991822E0,4.773199558E-2,5.684328079E-2,-9.441375732E-2
6.087987811E0,5.493965745E-2,2.836990356E-2,-1.033020020E-1
6.092983801E0,3.378030658E-2,5.015850067E-3,-1.264381409E-1
6.097979790E0,4.626631737E-2,-3.855705261E-3,-1.446638107E-1
6.102975780E0,7.312336564E-2,-7.680892944E-3,-1.961030960E-1
6.107971770E0,9.503582120E-2,7.829189301E-3,-2.472753525E-1
6.112967759E0,1.263139844E-1,2.356290817E-2,-2.507219315E-1
6.117963749E0,1.336622238E-1,3.472566605E-2,-2.020692825E-1
6.122959738E0,1.269350350E-1,4.117584229E-2,-1.206598282E-1
6.127955728E0,1.062024534E-1,2.852916718E-2,-7.314872742E-2
6.132951718E0,4.772400856E-2,6.398200989E-3,-5.922794342E-2
6.137947707E0,-1.533707976E-2,8.248329163E-3,-5.968189240E-2
6.142943697E0,-3.084555268E-2,-2.310323715E-2,-1.076250076E-1
6.147939686E0,-1.830598712E-2,-3.487062454E-2,-1.885519028E-1
6.152935676E0,-1.287221909E-2,6.972789764E-3,-9.246621132E-1
6.157931665E0,9.437409043E-2,8.845233917E-2,-4.826717377E-1
6.162927655E0,1.826047301E-1,1.217980385E-1,6.955242157E-2
6.167923645E0,3.669171929E-1,1.065020561E-1,2.661628723E-1
6.172919634E0,3.801873624E-1,9.976434708E-2,3.951444626E-1
6.177915624E0,2.947033048E-1,8.220338821E-2,4.762325287E-1
6.182911613E0,2.580575645E-1,3.989648819E-2,4.907293320E-1
6.187907603E0,2.600720525E-1,1.104021072E-2,4.581937790E-1
6.192903593E0,2.290370464E-1,-1.356267929E-2,3.883104324E-1
6.197899582E0,1.746782959E-1,8.975505829E-3,2.812967300E-1
6.202895572E0,2.066103220E-1,3.580045700E-2,2.750167847E-1
6.207891561E0,2.389630079E-1,5.727910995E-2,1.739778519E-1
6.212887551E0,1.001693308E-1,9.775257111E-2,2.457618713E-3
6.217883540E0,4.773026705E-2,1.147437096E-1,-1.346874237E-1
6.222879530E0,2.848678827E-2,1.135635376E-1,-2.284269333E-1
6.227875520E0,2.310064435E-2,7.545852661E-2,-2.411775589E-1
6.232871509E0,2.232268453E-2,3.850030899E-2,-1.735162735E-1
6.237867499E0,2.645850182E-2,7.102489471E-3,-8.769130707E-2
6.242863488E0,6.861507893E-3,-4.762172699E-3,-2.646923065E-2
6.247859478E0,6.101459265E-3,-1.163768768E-2,3.418636322E-2
6.252855468E0,4.936069250E-3,-1.840543747E-2,7.058906555E-2
6.257851457E0,2.261543274E-2,-1.571226120E-2,8.300399780E-2
6.262847447E0,7.841163874E-2,-8.483886719E-3,3.366947174E-2
6.267843436E0,1.105058491E-1,-1.375198364E-3,-1.524734497E-2
6.272839426E0,1.336370409E-1,-1.807880402E-2,-7.328701019E-2
6.277835415E0,1.527898610E-1,-4.411315918E-2,-1.404027939E-1
6.282831405E0,1.678135395E-1,-2.702569962E-2,-1.880903244E-1
6.287827395E0,1.739025414E-1,-1.461458206E-2,-2.355241776E-1
6.292823384E0,1.662000418E-1,7.405281067E-3,-2.399597168E-1
6.297819374E0,1.113075316E-1,4.858636856E-2,-2.303028107E-1
6.302815363E0,7.107385993E-2,8.959817886E-2,-2.398052216E-1
6.307811353E0,1.654207706E-2,9.730100632E-2,-2.208547592E-1
6.312807343E0,-4.934132099E-3,8.607864380E-2,-1.546125412E-1
6.317803332E0,-1.280677319E-2,8.914613724E-2,-4.136943817E-2
6.322799322E0,7.125884295E-3,8.724689484E-2,7.581520081E-2
6.327795311E0,5.967724323E-2,9.923171997E-2,1.922388077E-1
6.332791301E0,1.261073947E-1,8.689880371E-2,2.651958466E-1
6.337787290E0,1.401646733E-1,5.976295471E-2,2.903776169E-1
6.342783280E0,1.360966861E-1,2.287530899E-2,2.633132935E-1
6.347779270E0,8.583676815E-2,4.817962646E-3,2.556476593E-1
6.352775259E0,3.236994147E-2,5.663394928E-3,2.481174469E-1
6.357771249E0,-5.290606618E-2,2.056074142E-2,2.786884308E-1
6.362767238E0,-1.321505606E-1,1.145982742E-2,3.090486526E-1
6.367763228E0,-1.820834875E-1,2.353668213E-3,3.344459534E-1
6.372759218E0,-2.077198774E-1,-2.575397491E-2,3.121871948E-1
6.377755207E0,-2.186218202E-1,-5.832195282E-2,2.568416595E-1
6.382751197E0,-2.384714782E-1,-9.992408752E-2,1.638584137E-1
6.387747186E0,-2.528574467E-1,-1.218557358E-1,1.284494400E-1
6.392743176E0,-2.855456471E-1,-1.242294312E-1,9.787750244E-2
6.397739165E0,-3.271846473E-1,-1.071605682E-1,1.243247986E-1
6.402735155E0,-3.875636458E-1,-5.665445328E-2,1.598911285E-1
6.407731145E0,-4.670317769E-1,-1.096725464E-2,1.855211258E-1
6.412727134E0,-4.327696562E-1,-1.289033890E-2,1.776123047E-1
6.417723124E0,-4.140037000E-1,-2.399301529E-2,1.316728592E-1
6.422719113E0,-4.343477190E-1,-1.584482193E-2,7.182788849E-2
6.427715103E0,-4.649390578E-1,-2.803802490E-3,7.661819458E-3
6.432711093E0,-3.632140458E-1,-3.221416473E-2,-6.088161469E-2
6.437707082E0,-2.916087210E-1,-7.062959671E-2,-8.621215820E-2
6.442703072E0,-2.595065534E-1,-7.989788055E-2,-8.772563934E-2
6.447699061E0,-2.476299256E-1,-5.565404892E-2,-5.605316162E-2
6.452695051E0,-2.319067121E-1,-3.146457672E-2,-3.893661499E-2
6.457691040E0,-1.981463432E-1,-2.645874023E-2,-2.945899963E-3
6.462687030E0,-1.512708515E-1,-1.678323746E-2,3.754043579E-2
6.467683020E0,-1.244451553E-1,-2.174806595E-2,5.412673950E-2
6.472679009E0,-7.439795136E-2,-2.228498459E-2,6.126976013E-2
6.477674999E0,-3.394155204E-2,-1.378107071E-2,8.282089233E-2
6.482670988E0,2.088439465E-2,-4.863882065E-2,7.596492767E-2
6.487666978E0,5.681252480E-2,-8.367061615E-2,9.787273407E-2
6.492662968E0,4.555577040E-2,-9.061241150E-2,1.151733398E-1
6.497658957E0,6.546884775E-3,-6.006669998E-2,1.515798569E-1
6.502654947E0,-3.138691187E-3,-3.987407684E-2,2.117071152E-1
6.507650936E0,-4.598255455E-2,-2.519798279E-2,2.241439819E-1
6.512646926E0,-5.995538831E-2,-1.603937149E-2,2.178020477E-1
6.517642915E0,-1.655301452E-2,-1.691627502E-2,1.500005722E-1
6.522638905E0,7.839143276E-3,-4.660129547E-2,7.816600800E-2
6.527634895E0,4.682621360E-2,-5.239200592E-2,4.494857788E-2
6.532630884E0,1.620625556E-1,-2.029037476E-2,6.429386139E-2
6.537626874E0,2.107567787E-1,-1.207113266E-2,7.411003113E-3
6.542622863E0,2.223466337E-1,-3.698348999E-3,-1.115894318E-2
6.547618853E0,2.354066372E-1,2.391529083E-2,3.461837769E-3
6.552614843E0,2.640551329E-1,5.627250671E-2,3.205490112E-2
6.557610832E0,2.748992741E-1,6.949520111E-2,6.980419159E-2
6.562606822E0,2.867819071E-1,9.698152542E-2,1.071491241E-1
6.567602811E0,2.662933171E-1,1.098875999E-1,1.014804840E-1
6.572598801E0,2.372152209E-1,8.947992325E-2,6.259346008E-2
6.577594790E0,1.851890385E-1,4.083108902E-2,2.873706818E-2
6.582590780E0,1.432998776E-1,-1.691627502E-2,-1.432228088E-2
6.587586770E0,8.274111152E-2,-7.400465012E-2,-1.910686493E-2
6.592582759E0,-1.425206661E-3,-1.068754196E-1,-1.433181763E-2
6.597578749E0,-7.133685052E-2,-1.773657799E-1,4.632949829E-3
6.602574738E0,-1.272038817E-1,-1.808772087E-1,2.825927734E-2
6.607570728E0,-1.502642930E-1,-1.891951561E-1,7.075405121E-2
6.612566718E0,-1.502642930E-1,-1.689915657E-1,1.271848679E-1
6.617562707E0,-1.270726472E-1,-1.444320679E-1,1.405391693E-1
6.622558697E0,-9.936887026E-2,-1.107130051E-1,1.491069794E-1
6.627554686E0,-9.535896778E-2,-8.229684830E-2,1.434965134E-1
6.632550676E0,-7.648822665E-2,-5.425310135E-2,1.332511902E-1
6.637546665E0,-6.201366335E-2,-5.032300949E-2,1.184129715E-1
6.642542655E0,-7.578039914E-2,-6.076335907E-2,8.000850677E-2
6.647538645E0,-9.424938262E-2,-5.212259293E-2,3.243827820E-2
6.652534634E0,-1.319277883E-1,-4.350852966E-2,8.999824524E-3
6.657530624E0,-1.748481691E-1,-1.126909256E-2,4.277706146E-2
6.662526613E0,-1.569493115E-1,6.317615509E-3,8.110618591E-2
6.667522603E0,-1.500345021E-1,4.242801666E-2,1.762723923E-1
6.672518593E0,-8.721038699E-2,3.978776932E-2,2.281475067E-1
6.677514582E0,-3.512262180E-2,1.761960983E-2,2.228899002E-1
6.682510572E0,1.138881221E-2,-2.866220474E-2,2.179546356E-1
6.687506561E0,3.872471303E-2,-3.219318390E-2,1.847562790E-1
6.692502551E0,9.019679576E-2,-4.565429688E-2,1.568145752E-1
6.697498540E0,8.997365087E-2,-5.905103683E-2,1.196336746E-1
6.702494530E0,3.885538131E-2,-6.274747849E-2,8.746814728E-2
6.707490520E0,-3.873775527E-2,-1.088733673E-1,3.169727325E-2
6.712486509E0,-6.670151651E-2,-1.446104050E-1,-2.859973907E-2
6.717482499E0,-1.312922090E-1,-1.556143761E-1,-6.973171234E-2
6.722478488E0,-2.136720866E-1,-1.513581276E-1,-8.247280121E-2
6.727474478E0,-2.855243385E-1,-1.604137421E-1,-1.050682068E-1
6.732470468E0,-3.283342421E-1,-1.779232025E-1,-1.231908798E-1
6.737466457E0,-3.992789686E-1,-1.895732880E-1,-1.131334305E-1
6.742462447E0,-4.174446166E-1,-1.955533028E-1,-7.506084442E-2
6.747458436E0,-3.976991177E-1,-1.771039963E-1,-3.285408020E-2
6.752454426E0,-3.833236992E-1,-1.346631050E-1,1.831340790E-2
6.757450415E0,-3.885867000E-1,-1.018567085E-1,7.370758057E-2
6.762446405E0,-3.282882273E-1,-8.815050125E-2,1.428050995E-1
6.767442395E0,-2.787426114E-1,-5.078458786E-2,2.065639496E-1
6.772438384E0,-2.252217829E-1,-1.849317551E-2,2.270689011E-1
6.777434374E0,-1.575239301E-1,-2.442264557E-2,2.141666412E-1
6.782430363E0,-1.322643906E-1,-2.072191238E-2,1.681213379E-1
6.787426353E0,-8.203455806E-2,-4.536008835E-2,1.224164963E-1
6.792422343E0,-4.468500614E-2,-5.983066559E-2,1.054143906E-1
6.797418332E0,-2.462606132E-2,-6.886816025E-2,7.885456085E-2
6.802414322E0,-5.472199619E-2,-9.132385254E-2,4.274272919E-2
6.807410311E0,-1.062699258E-1,-9.836530685E-2,1.803398132E-3
6.812406301E0,-1.749180555E-1,-1.091194153E-1,-5.816650391E-2
6.817402290E0,-2.371957302E-1,-1.377596855E-1,-1.322803497E-1
6.822398280E0,-2.985276580E-1,-1.792078018E-1,-1.967782974E-1
6.827394270E0,-3.405969441E-1,-2.144136429E-1,-2.612285614E-1
6.832390259E0,-4.164442718E-1,-2.385923862E-1,-3.399438858E-1
6.837386249E0,-4.836691618E-1,-2.518560886E-1,-4.090814590E-1
6.842382238E0,-5.520924330E-1,-2.305099964E-1,-4.735078812E-1
6.847378228E0,-5.794932842E-1,-2.034871578E-1,-5.094747543E-1
6.852374218E0,-5.807315111E-1,-1.850869656E-1,-5.029945374E-1
6.857370207E0,-5.229938030E-1,-1.611235142E-1,-4.733715057E-1
6.862366197E0,-4.306769073E-1,-1.411306858E-1,-4.588050842E-1
6.867362186E0,-3.137000799E-1,-1.583621502E-1,-4.639081955E-1
6.872358176E0,-2.148450017E-1,-1.317703724E-1,-4.790153503E-1
6.877354165E0,-1.479008794E-1,-1.188395023E-1,-5.229520798E-1
6.882350155E0,-9.323745966E-2,-9.579491615E-2,-5.669212341E-1
6.887346145E0,-1.712155342E-2,-6.755232811E-2,-6.061058044E-1
6.892342134E0,1.328245103E-1,-6.282114983E-2,-6.214466095E-1
6.897338124E0,2.615112662E-1,-5.293607712E-2,-6.320905685E-1
6.902334113E0,3.647044897E-1,-2.377247810E-2,-6.237716675E-1
6.907330103E0,4.525111616E-1,1.968955994E-2,-6.488218307E-1
6.912326093E0,5.301150084E-1,9.173011780E-2,-7.022638321E-1
6.917322082E0,6.168326735E-1,1.872780323E-1,-7.125825882E-1
6.922318072E0,6.841986179E-1,2.540020943E-1,-6.896715164E-1
6.927314061E0,7.276186347E-1,2.730529308E-1,-6.290159225E-1
6.932310051E0,7.235962152E-1,2.969143391E-1,-5.213670731E-1
6.937306040E0,6.713073254E-1,3.061716557E-1,-2.986526489E-2
6.942302030E0,6.056084037E-1,2.712903023E-1,7.904138565E-1
6.947298020E0,2.633082867E-1,3.242254257E-1,1.253458023E0
6.952294009E0,-4.271173477E-2,3.354411125E-1,1.106160164E0
6.957289999E0,-5.232766271E-2,2.722988129E-1,7.715015411E-1
6.962285988E0,1.679338515E-1,1.167387962E-1,6.878280640E-1
6.967281978E0,4.030027092E-1,-6.717205048E-3,6.867237091E-1
6.972277968E0,5.481575727E-1,-5.084705353E-2,7.769680023E-1
6.977273957E0,5.426120758E-1,-4.931807518E-2,7.867422104E-1
6.982269947E0,5.150277615E-1,-5.955052376E-2,8.781490326E-1
6.987265936E0,4.316068292E-1,-1.004028320E-2,8.462238312E-1
6.992261926E0,4.490875006E-1,2.301311493E-2,8.010807037E-1
6.997257915E0,5.240463614E-1,5.863952637E-2,8.235960007E-1
7.002253905E0,5.329730511E-1,5.388331413E-2,7.945775986E-1
7.007249895E0,8.183516860E-1,-5.213499069E-3,7.619581223E-1
7.012245884E0,1.036911845E0,-2.317380905E-2,6.735219955E-1
7.017241874E0,1.024032831E0,1.400089264E-2,5.107097626E-1
7.022237863E0,8.435038924E-1,9.203457832E-2,2.122325897E-1
7.027233853E0,4.671419263E-1,1.258769035E-1,-1.878576279E-1
7.032229843E0,8.002370596E-2,8.836030960E-2,-4.896793365E-1
7.037225832E0,-7.183136791E-2,2.334022522E-2,-7.370138168E-1
7.042221822E0,-3.770825267E-2,7.642030716E-3,-8.878374100E-1
7.047217811E0,1.599826291E-2,1.730108261E-2,-9.762706757E-1
7.052213801E0,1.409832761E-2,1.891279221E-2,-7.939167023E-1
7.057209790E0,-6.219331175E-2,5.926513672E-2,-5.089149475E-1
7.062205780E0,-1.748852730E-1,9.007072449E-2,-2.738752365E-1
7.067201770E0,-1.630973220E-1,4.454565048E-2,-1.262140274E-1
7.072197759E0,-1.381117404E-1,-5.283784866E-2,-7.000064850E-2
7.077193749E0,-2.104359567E-1,-1.068248749E-1,4.277610779E-2
7.082189738E0,-2.039633095E-1,-1.321187019E-1,1.499500275E-1
7.087185728E0,-4.777264595E-2,-1.340856552E-1,2.327384949E-1
7.092181718E0,2.484697104E-1,-1.702270508E-1,3.579759598E-1
7.097177707E0,4.996255636E-1,-2.310354710E-1,4.067325592E-1
7.102173697E0,5.498425961E-1,-2.926063538E-1,4.034118652E-1
7.107169686E0,4.577506185E-1,-3.261578083E-1,3.103399277E-1
7.112165676E0,2.903195024E-1,-2.794067860E-1,2.705974579E-1
7.117161665E0,1.807498038E-1,-2.095804214E-1,8.411884308E-2
7.122157655E0,1.570711136E-1,-1.637396812E-1,-7.244491577E-2
7.127153645E0,1.235984415E-1,-9.405660629E-2,-1.186800003E-1
7.132149634E0,3.307606280E-2,-2.922224998E-2,-7.924747467E-2
7.137145624E0,-6.168180332E-2,6.729841232E-3,-1.169776917E-2
7.142141613E0,-1.416719854E-1,3.246736526E-2,7.923507690E-2
7.147137603E0,-1.119613498E-1,1.925539970E-2,1.270275116E-1
7.152133593E0,-4.854401201E-2,-1.856803894E-2,2.768135071E-2
7.157129582E0,1.613883302E-2,-1.518795490E-1,-1.511545181E-1
7.162125572E0,3.550403565E-2,-2.941243649E-1,-2.807312012E-1
7.167121561E0,1.290588379E-1,-3.641242981E-1,-3.473806381E-1
7.172117551E0,2.249751687E-1,-3.670392036E-1,-3.517103195E-1
7.177113540E0,2.613448799E-1,-3.315877914E-1,-2.611455917E-1
7.182109530E0,2.763192356E-1,-2.915136814E-1,-7.164096832E-2
7.187105520E0,2.793530822E-1,-3.183612823E-1,1.543827057E-1
7.192101509E0,2.846472263E-1,-3.833599091E-1,3.645257950E-1
7.197097499E0,2.591100335E-1,-4.626364708E-1,4.640493393E-1
7.202093488E0,2.695002854E-1,-5.513701439E-1,4.539146423E-1
7.207089478E0,4.107698798E-1,-6.352779865E-1,3.683195114E-1
7.212085468E0,6.201090813E-1,-7.427866459E-1,2.126140594E-1
7.217081457E0,7.262161970E-1,-7.835056782E-1,1.726112366E-1
7.222077447E0,7.021353841E-1,-7.296116352E-1,2.569427490E-1
7.227073436E0,4.453146756E-1,-5.822358131E-1,3.223485947E-1
7.232069426E0,1.240386218E-1,-3.516309261E-1,2.408456802E-1
7.237065415E0,-1.152194738E-1,-1.189584732E-1,1.132984161E-1
7.242061405E0,-3.460799754E-1,1.210961342E-1,6.293296814E-3
7.247057395E0,-5.945605040E-1,4.069199562E-1,-1.471090317E-1
7.252053384E0,-6.483937502E-1,6.392574310E-1,-2.567939758E-1
7.257049374E0,-6.140243411E-1,7.335467339E-1,-3.756494522E-1
7.262045363E0,-5.678988695E-1,7.676391602E-1,-5.277347565E-1
7.267041353E0,-5.040294528E-1,6.901922226E-1,-6.844339371E-1
7.272037343E0,-3.900792599E-1,5.776171684E-1,-7.321476936E-1
7.277033332E0,-1.437156200E-1,4.822793007E-1,-7.519774437E-1
7.282029322E0,2.616974115E-1,3.370404243E-1,-7.531399727E-1
7.287025311E0,6.612285376E-1,1.701631546E-1,-6.728768349E-1
7.292021301E0,9.842303395E-1,1.626553535E-1,-2.523641586E-1
7.297017290E0,1.153337479E0,3.463511467E-1,4.801416397E-1
7.302013280E0,9.356985092E-1,6.910400391E-1,1.051260948E0
7.307009270E0,4.122679234E-1,1.119344234E0,1.685726166E0
7.312005259E0,-3.518913984E-1,1.458235264E0,2.052865028E0
7.317001249E0,-9.891755581E-1,1.583513260E0,1.946311951E0
7.321997238E0,-1.268823504E0,1.496283531E0,1.360630989E0
7.326993228E0,-1.152138472E0,1.217072010E0,5.969934464E-1
7.331989218E0,-8.083215952E-1,8.428153992E-1,-1.484670639E-1
7.336985207E0,-4.154770374E-1,5.464968681E-1,-6.747326851E-1
7.341981197E0,-1.665574312E-1,3.909511566E-1,-9.628620148E-1
7.346977186E0,-6.918418407E-2,3.378014565E-1,-1.027262688E0
7.351973176E0,-1.420052052E-1,4.108304977E-1,-9.542655945E-1
7.356969165E0,-2.751677036E-1,5.474653244E-1,-8.013710976E-1
7.361965155E0,-3.976534605E-1,7.230253220E-1,-4.202003479E-1
7.366961145E0,-4.523344040E-1,9.318408966E-1,4.589653015E-2
7.371957134E0,-3.053793907E-1,1.034205437E0,4.251747131E-1
7.376953124E0,-9.130835533E-3,9.817867279E-1,6.081943512E-1
7.381949113E0,3.890231848E-1,8.847551346E-1,6.001195908E-1
7.386945103E0,7.991746068E-1,7.718853951E-1,5.209369659E-1
7.391941093E0,1.131652594E0,6.913981438E-1,4.090070724E-1
7.396937082E0,1.363559484E0,6.053109169E-1,3.073959351E-1
7.401933072E0,1.461884737E0,5.520024300E-1,2.447786331E-1
7.406929061E0,1.498587370E0,5.173215866E-1,1.827287674E-1
7.411925051E0,1.464227438E0,5.154838562E-1,1.260938644E-1
7.416921040E0,1.411864161E0,5.273032188E-1,9.405803680E-2
7.421917030E0,1.346590042E0,4.809017181E-1,1.058282852E-1
7.426913020E0,1.311668992E0,4.288649559E-1,1.662139893E-1
7.431909009E0,1.235526562E0,3.472251892E-1,2.178268433E-1
7.436904999E0,1.175736785E0,2.455334663E-1,2.176847458E-1
7.441900988E0,1.156438708E0,1.668105125E-1,1.754798889E-1
7.446896978E0,1.167834282E0,7.763671875E-2,9.119415283E-2
7.451892968E0,1.123815656E0,2.123260498E-2,-6.389999390E-2
7.456888957E0,1.043373227E0,-1.170396805E-2,-2.038278580E-1
7.461884947E0,9.741679430E-1,-3.033542633E-2,-3.910527229E-1
7.466880936E0,8.871431351E-1,-4.364824295E-2,-6.019959450E-1
7.471876926E0,8.059040904E-1,-9.853458405E-2,-8.324489594E-1
7.476872915E0,7.110800147E-1,-1.752653122E-1,-1.082752228E0
7.481868905E0,6.405568123E-1,-2.443022728E-1,-1.343872547E0
7.486864895E0,5.560492873E-1,-3.053288460E-1,-1.568189144E0
7.491860884E0,4.580436349E-1,-3.485155106E-1,-1.746301651E0
7.496856874E0,3.036297560E-1,-3.833665848E-1,-1.849623680E0
7.501852863E0,1.309673786E-1,-4.144959450E-1,-1.916649818E0
7.506848853E0,-3.612709045E-2,-4.418921471E-1,-1.933109283E0
7.511844843E0,-1.982456446E-1,-4.847540855E-1,-1.918239594E0
7.516840832E0,-3.462026119E-1,-4.808154106E-1,-1.872170448E0
7.521836822E0,-5.138297081E-1,-4.400768280E-1,-1.751711845E0
7.526832811E0,-7.446011305E-1,-3.964991570E-1,-1.528049946E0
7.531828801E0,-1.020386338E0,-3.363552094E-1,-1.138915062E0
7.536824790E0,-1.207908630E0,-2.702269554E-1,-6.892247200E-1
7.541820780E0,-1.298398852E0,-2.278718948E-1,-1.833038330E-1
7.546816770E0,-1.249269724E0,-2.199854851E-1,2.933301926E-1
7.551812759E0,-1.098403692E0,-2.571325302E-1,6.361885071E-1
7.556808749E0,-9.160611629E-1,-3.544664383E-1,8.079004288E-1
7.561804738E0,-7.671948671E-1,-4.790143967E-1,8.905839920E-1
7.566800728E0,-7.031354904E-1,-5.733695030E-1,9.323310852E-1
7.571796718E0,-7.426216602E-1,-5.803046227E-1,9.237213135E-1
7.576792707E0,-8.377032280E-1,-5.620369911E-1,8.647661209E-1
7.581788697E0,-8.879104853E-1,-5.899186134E-1,7.839765549E-1
7.586784686E0,-8.640706539E-1,-6.731157303E-1,6.621236801E-1
7.591780676E0,-9.912505150E-1,-5.862960815E-1,5.419979095E-1
7.596776665E0,-1.188762188E0,-4.154748917E-1,4.615964890E-1
7.601772655E0,-1.376296759E0,-2.416129112E-1,3.774394989E-1
7.606768645E0,-1.525922060E0,-1.025819778E-1,2.700872421E-1
7.611764634E0,-1.585283399E0,-4.583978653E-2,1.202306747E-1
7.616760624E0,-1.635728359E0,-3.742742538E-2,-2.924251556E-2
7.621756613E0,-1.610314727E0,-4.804468155E-2,-1.356058121E-1
7.626752603E0,-1.509411335E0,-7.749032974E-2,-2.134027481E-1
7.631748593E0,-1.381017685E0,-1.014213562E-1,-2.916145325E-1
7.636744582E0,-1.253622174E0,-1.196341515E-1,-3.416457176E-1
7.641740572E0,-1.170057893E0,-1.080889702E-1,-3.540205956E-1
7.646736561E0,-1.086807847E0,-8.592033386E-2,-3.478875160E-1
7.651732655E0,-9.892345667E-1,-6.728029251E-2,-3.233656883E-1
7.656728645E0,-8.915977478E-1,-2.353715897E-2,-2.947745323E-1
7.661724634E0,-7.890263796E-1,1.647710800E-2,-2.907452583E-1
7.666720624E0,-6.766467094E-1,4.794931412E-2,-2.873072624E-1
7.671716613E0,-5.877698660E-1,6.135129929E-2,-2.748918533E-1
7.676712603E0,-4.840528965E-1,4.714870453E-2,-3.204684258E-1
7.681708593E0,-4.132570028E-1,2.943563461E-2,-3.475260735E-1
7.686704582E0,-3.564739823E-1,2.260446548E-2,-3.178915977E-1
7.691700572E0,-2.944846153E-1,2.177572250E-2,-2.794003487E-1
7.696696561E0,-2.509159446E-1,1.738071442E-2,-2.511615753E-1
7.701692499E0,-2.256123424E-1,2.846527100E-2,-1.996183395E-1
7.706688436E0,-1.945061088E-1,-2.247810364E-3,-1.200809479E-1
7.711684374E0,-1.765748262E-1,-4.166460037E-2,-2.664947510E-2
7.716680311E0,-1.814197898E-1,-6.613636017E-2,1.190824509E-1
7.721676249E0,-1.902264953E-1,-9.531164169E-2,2.790479660E-1
7.726672186E0,-2.128015161E-1,-9.593296051E-2,4.198617935E-1
7.731668124E0,-2.587193847E-1,-1.114363670E-1,5.513238907E-1
7.736664061E0,-2.558451295E-1,-1.563324928E-1,6.449069977E-1
7.741659999E0,-2.614796162E-1,-2.452454567E-1,7.534694672E-1
7.746655936E0,-2.372829318E-1,-3.306264877E-1,7.959003448E-1
7.751651874E0,-2.119178772E-1,-4.222002029E-1,7.580375671E-1
7.756647811E0,-2.287027836E-1,-5.009269714E-1,6.878356934E-1
7.761643749E0,-2.878166437E-1,-5.571370125E-1,5.708904266E-1
7.766639686E0,-3.992413282E-1,-5.858440399E-1,4.596729279E-1
7.771635624E0,-5.395139456E-1,-5.725474358E-1,3.635673523E-1
7.776631561E0,-6.230376959E-1,-5.362696648E-1,2.584829330E-1
7.781627499E0,-6.979407072E-1,-4.863357544E-1,1.251096725E-1
7.786623436E0,-6.880521774E-1,-4.416780472E-1,6.351470947E-3
7.791619374E0,-6.555814743E-1,-3.734140396E-1,-9.791278839E-2
7.796615311E0,-5.766540766E-1,-2.956833839E-1,-1.830644608E-1
7.801611249E0,-4.990463257E-1,-2.179517746E-1,-2.683138847E-1
7.806607186E0,-4.415066242E-1,-1.447916031E-1,-3.393950462E-1
7.811603124E0,-3.991636038E-1,-8.565139771E-2,-3.772568703E-1
7.816599061E0,-3.576306105E-1,-2.614307404E-2,-4.154295921E-1
7.821594999E0,-3.216402531E-1,3.389310837E-2,-4.300961494E-1
7.826590936E0,-3.152605295E-1,8.964109421E-2,-4.547648430E-1
7.831586926E0,-3.098247051E-1,1.267824173E-1,-4.655346870E-1
7.836582915E0,-3.340677023E-1,1.742110252E-1,-4.577555656E-1
7.841578905E0,-3.497728109E-1,2.032465935E-1,-4.362597466E-1
7.846574895E0,-3.568885326E-1,2.616882324E-1,-4.010272026E-1
7.851570884E0,-3.170664310E-1,2.874703407E-1,-3.617138863E-1
7.856566874E0,-2.827519178E-1,2.996754646E-1,-3.278069496E-1
7.861562863E0,-2.296917439E-1,3.031525612E-1,-3.088517189E-1
7.866558853E0,-2.007486820E-1,3.267426491E-1,-2.761950493E-1
7.871554843E0,-1.669349670E-1,3.512024879E-1,-2.249846458E-1
7.876550832E0,-1.616398692E-1,3.621244431E-1,-1.504116058E-1
7.881546822E0,-1.367845535E-1,3.785662651E-1,-7.633686066E-2
7.886542811E0,-1.353960037E-1,3.907995224E-1,-1.700496674E-2
7.891538801E0,-1.239070296E-1,3.795194626E-1,4.206848145E-2
7.896534790E0,-1.168397069E-1,3.684625626E-1,7.229709625E-2
7.901530780E0,-9.985715151E-2,3.574585915E-1,1.120786667E-1
7.906526770E0,-6.361901760E-2,3.416657448E-1,1.518497467E-1
7.911522759E0,-3.219258785E-2,3.255667686E-1,1.630878448E-1
7.916518749E0,2.298492193E-2,2.995681763E-1,2.032184601E-1
7.921514738E0,5.879157782E-2,3.113465309E-1,2.292594910E-1
7.926510728E0,1.086836457E-1,3.175926208E-1,2.604885101E-1
7.931506718E0,1.440460086E-1,3.182802200E-1,2.777996063E-1
7.936502707E0,1.984873414E-1,3.179826736E-1,2.813558578E-1
7.941498697E0,2.625093460E-1,3.024654388E-1,2.615509033E-1
7.946494686E0,2.932159901E-1,2.860536575E-1,2.423667908E-1
7.951490676E0,3.337711692E-1,2.831969261E-1,2.189683914E-1
7.956486665E0,3.459570408E-1,2.796711922E-1,1.673660278E-1
7.961482655E0,3.586518764E-1,2.661247253E-1,8.747863770E-2
7.966478645E0,3.383888602E-1,2.571454048E-1,3.180980682E-2
7.971474634E0,3.090674281E-1,2.530236244E-1,-3.333759308E-2
7.976470624E0,2.945405841E-1,2.441825867E-1,-6.491661072E-2
7.981466613E0,2.757045031E-1,2.117605209E-1,-9.660339355E-2
7.986462603E0,2.575832605E-1,1.845641136E-1,-1.284265518E-1
7.991458593E0,2.497849464E-1,1.434984207E-1,-1.986694336E-1
7.996454582E0,2.283743620E-1,1.125712395E-1,-2.547297478E-1
8.001450572E0,2.123399973E-1,8.706998825E-2,-2.966914177E-1
8.006446561E0,1.868526936E-1,8.140897751E-2,-3.151011467E-1
8.011442551E0,1.804608107E-1,1.051678658E-1,-3.100295067E-1
8.016438540E0,1.738360524E-1,1.581783295E-1,-3.149189949E-1
8.021434530E0,1.813699007E-1,2.069272995E-1,-2.675805092E-1
8.026430520E0,2.078981400E-1,2.512927055E-1,-2.253808975E-1
8.031426509E0,2.392188907E-1,2.480764389E-1,-1.881961823E-1
8.036422499E0,2.900178432E-1,2.690429688E-1,-1.655330658E-1
8.041418488E0,3.126425743E-1,2.710065842E-1,-1.285867691E-1
8.046414478E0,3.455294371E-1,2.635197639E-1,-9.646987915E-2
8.051410468E0,3.502579927E-1,2.847709656E-1,-5.957508087E-2
8.056406457E0,3.316456079E-1,2.821168900E-1,-6.094932556E-2
8.061402447E0,2.944596410E-1,2.699351311E-1,-6.707191467E-2
8.066398436E0,2.575957179E-1,2.722244263E-1,-5.887985229E-2
8.071394426E0,2.002199888E-1,2.678718567E-1,-4.562282562E-2
8.076390415E0,1.811175942E-1,2.400259972E-1,-2.312946320E-2
8.081386405E0,1.381415129E-1,2.173652649E-1,2.276325226E-2
8.086382395E0,1.285320520E-1,1.997985840E-1,5.391025543E-2
8.091378384E0,9.513872862E-2,1.730213165E-1,8.944892883E-2
8.096374374E0,7.164335251E-2,1.371588707E-1,1.340856552E-1
8.101370363E0,4.840213060E-2,9.222650528E-2,1.830272675E-1
8.106366353E0,3.477883339E-2,4.770946503E-2,2.220344543E-1
8.111362343E0,6.836414337E-3,1.296567917E-2,2.560091019E-1
8.116358332E0,-1.619774103E-2,-2.540588379E-3,2.802276611E-1
8.121354322E0,-3.914004564E-2,-2.750778198E-2,3.422832489E-1
8.126350311E0,-5.730342865E-2,-1.920413971E-2,4.039173126E-1
8.131346301E0,-8.007663488E-2,-6.355905533E-2,4.082756042E-1
8.136342290E0,-7.413792610E-2,-9.840393066E-2,3.843297958E-1
8.141338280E0,-7.775801420E-2,-1.380639076E-1,3.655519485E-1
8.146334270E0,-7.175838947E-2,-1.493082047E-1,3.234472275E-1
8.151330259E0,-8.490431309E-2,-1.799197197E-1,2.914657593E-1
8.156326249E0,-1.030189991E-1,-1.917581558E-1,2.885007858E-1
8.161322238E0,-7.391476631E-2,-1.945219040E-1,2.905845642E-1
8.166318228E0,-3.133887053E-2,-1.836299896E-1,2.597332001E-1
8.171314218E0,-1.320618391E-2,-1.875047684E-1,2.103729248E-1
8.176310207E0,4.446864128E-3,-1.725683212E-1,1.330318451E-1
8.181306197E0,-2.205729485E-3,-1.530027390E-1,8.003425598E-2
8.186302186E0,-1.391381025E-2,-1.097130775E-1,7.483959198E-2
8.191298176E0,-3.082036972E-2,-4.752159119E-2,8.371734619E-2
8.196294165E0,-1.004850864E-2,4.975795746E-3,9.703159332E-2
8.201290155E0,1.991349459E-2,4.782533646E-2,1.100482941E-1
8.206286145E0,6.891697645E-2,5.733299255E-2,9.908962250E-2
8.211282134E0,1.609599590E-1,5.753612518E-2,7.862949371E-2
8.216278124E0,2.627632618E-1,6.274414062E-2,4.878616333E-2
8.221274113E0,2.935917974E-1,5.396842957E-2,-9.380340576E-3
8.226270103E0,3.013386130E-1,4.096651077E-2,-5.300140381E-2
8.231266093E0,2.716429234E-1,5.701494217E-2,-6.798267365E-2
8.236262082E0,2.520551682E-1,7.799100876E-2,-8.299446106E-2
8.241258072E0,2.183781862E-1,8.484363556E-2,-1.075572968E-1
8.246254061E0,1.326266527E-1,9.184408188E-2,-1.035594940E-1
8.251250051E0,8.046889305E-2,1.178812981E-1,-7.119941711E-2
8.256246040E0,3.766256571E-2,1.151790619E-1,-4.864025116E-2
8.261242030E0,2.318477631E-2,1.029233932E-1,-5.950927734E-2
8.266238020E0,-6.122291088E-3,1.142926216E-1,-4.172992706E-2
8.271234009E0,-5.501544476E-2,1.157627106E-1,2.824306488E-2
8.276229999E0,-9.988909960E-2,1.262216568E-1,7.408428192E-2
8.281225988E0,-1.123565435E-1,1.312556267E-1,8.654594421E-2
8.286221978E0,-1.259540319E-1,1.261572838E-1,9.440040588E-2
8.291217968E0,-1.261013150E-1,9.205627441E-2,4.071235657E-2
8.296213957E0,-1.030436158E-1,7.197141647E-2,-1.226520538E-2
8.301209947E0,-7.573008537E-2,4.212617874E-2,-7.880878448E-2
8.306205936E0,-3.450524807E-2,2.643013000E-2,-1.445932388E-1
8.311201926E0,-2.229160070E-2,3.452253342E-2,-2.192859650E-1
8.316197915E0,-4.377132654E-2,4.237556458E-2,-2.600383759E-1
8.321193905E0,-8.946508169E-2,8.332824707E-2,-2.292289734E-1
8.326189895E0,-1.551968455E-1,1.286973953E-1,-1.465644836E-1
8.331185884E0,-1.606646180E-1,1.545324326E-1,-1.121397018E-1
8.336181874E0,-1.396889091E-1,1.705017090E-1,-1.255559921E-1
8.341177863E0,-8.760017157E-2,1.673750877E-1,-1.627607346E-1
8.346173853E0,-8.912682533E-3,1.547288895E-1,-1.617279053E-1
8.351169843E0,1.015347838E-1,1.469454765E-1,-1.464920044E-1
8.356165832E0,2.155328095E-1,1.582002640E-1,-1.123571396E-1
8.361161822E0,3.243396878E-1,1.598243713E-1,-7.365226746E-2
8.366157811E0,3.952692151E-1,1.661000252E-1,-6.834125519E-2
8.371153801E0,4.623796940E-1,1.580038071E-1,-1.008710861E-1
8.376149790E0,5.069909096E-1,1.548190117E-1,-1.377811432E-1
8.381145780E0,5.486461520E-1,1.328964233E-1,-1.838502884E-1
8.386141770E0,5.590380430E-1,1.066374779E-1,-2.200098038E-1
8.391137759E0,5.620548129E-1,1.046972275E-1,-2.416877747E-1
8.396133749E0,5.291516781E-1,1.081380844E-1,-2.634258270E-1
8.401129738E0,4.648123085E-1,9.303188324E-2,-2.471885681E-1
8.406125728E0,3.881331682E-1,9.281444550E-2,-2.550621033E-1
8.411121718E0,2.844148874E-1,7.419443130E-2,-2.489356995E-1
8.416117707E0,1.584958434E-1,5.626344681E-2,-2.383985519E-1
8.421113697E0,4.329755902E-2,4.375553131E-2,-2.425060272E-1
8.426109686E0,-7.116416097E-2,1.761865616E-2,-2.136659622E-1
8.431105676E0,-1.378156245E-1,-2.687311172E-2,-1.996049881E-1
8.436101665E0,-1.667648554E-1,-7.532978058E-2,-1.954593658E-1
8.441097655E0,-1.727743745E-1,-9.914255142E-2,-1.869621277E-1
8.446093645E0,-1.751003861E-1,-1.174702644E-1,-1.789255142E-1
8.451089634E0,-1.499609649E-1,-1.398968697E-1,-1.618175507E-1
8.456085624E0,-1.116726995E-1,-1.426420212E-1,-1.404523849E-1
8.461081613E0,-8.866107464E-2,-1.448640823E-1,-1.290969849E-1
8.466077603E0,-5.219352245E-2,-1.229529381E-1,-9.908962250E-2
8.471073593E0,-3.546363115E-2,-1.103458405E-1,-3.158187866E-2
8.476069582E0,-2.396485209E-2,-8.809709549E-2,2.096462250E-2
8.481065572E0,-3.692081571E-2,-6.609582901E-2,1.395721436E-1
8.486061561E0,-8.426803350E-2,-2.556657791E-2,3.427877426E-1
8.491057551E0,-1.567892134E-1,4.354476929E-3,5.019636154E-1
8.496053540E0,-1.880895197E-1,1.882982254E-2,5.700788498E-1
8.501049530E0,-2.111103535E-1,-1.551485062E-2,5.623311996E-1
8.506045520E0,-1.729365289E-1,-5.549192429E-2,5.031089783E-1
8.511041509E0,-1.017985046E-1,-1.105899811E-1,4.261369705E-1
8.516037499E0,-2.124726772E-3,-1.520957947E-1,3.410263062E-1
8.521033488E0,9.331759810E-2,-1.657795906E-1,2.620601654E-1
8.526029478E0,1.518916935E-1,-1.280298233E-1,2.508716583E-1
8.531025468E0,2.075526863E-1,-9.137296677E-2,2.261009216E-1
8.536021457E0,2.508116066E-1,-4.621458054E-2,2.067918777E-1
8.541017447E0,2.530785799E-1,-2.124309540E-3,2.023849487E-1
8.546013436E0,2.524448335E-1,4.099655151E-2,1.889476776E-1
8.551009426E0,2.534183860E-1,6.895494461E-2,1.902599335E-1
8.556005415E0,2.415197641E-1,7.242488861E-2,1.396856308E-1
8.561001405E0,1.978451312E-1,4.690933228E-2,8.986377716E-2
8.565997395E0,1.223946661E-1,2.126598358E-2,7.869243622E-2
8.570993384E0,8.158501983E-2,2.927780151E-4,8.681583405E-2
8.575989374E0,4.623028636E-2,-1.609563828E-2,3.336524963E-2
8.580985363E0,3.041595221E-2,-7.049751282E-2,-3.377056122E-2
8.585981353E0,-1.829829812E-2,-1.245632172E-1,-1.240005493E-1
8.590977343E0,-9.511139989E-2,-1.258478165E-1,-1.517982483E-1
8.595973332E0,-1.573611498E-1,-1.128225327E-1,-1.176681519E-1
8.600969322E0,-1.866682768E-1,-4.282999039E-2,-7.440280914E-2
8.605965311E0,-2.215236723E-1,-1.127433777E-2,-6.010055542E-2
8.610961301E0,-2.336629629E-1,-1.300382614E-2,-8.882713318E-2
8.615957290E0,-2.328594029E-1,-3.806924820E-2,-1.270961761E-1
8.620953280E0,-1.999723017E-1,-5.286550522E-2,-1.369371414E-1
8.625949270E0,-1.302739680E-1,-8.122062683E-2,-1.518182755E-1
8.630945259E0,-9.502536058E-2,-9.448432922E-2,-1.337289810E-1
8.635941249E0,-1.173144579E-1,-1.117358208E-1,-1.446847916E-1
8.640937238E0,-1.250569522E-1,-1.281919479E-1,-1.796855927E-1
8.645933228E0,-1.324818432E-1,-1.534490585E-1,-1.909828186E-1
8.650929218E0,-1.204132736E-1,-1.588964462E-1,-1.930437088E-1
8.655925207E0,-1.127570271E-1,-1.826424599E-1,-2.097148895E-1
8.660921197E0,-1.049813628E-1,-2.056698799E-1,-2.028169632E-1
8.665917186E0,-1.211201847E-1,-1.567587852E-1,-2.532815933E-1
8.670913176E0,-1.898186803E-1,-1.172847748E-1,-2.941312790E-1
8.675909165E0,-2.725732327E-1,-5.402135849E-2,-3.016457558E-1
8.680905155E0,-2.599028051E-1,-3.835105896E-2,-3.520989418E-1
8.685901145E0,-1.906140745E-1,-3.667640686E-2,-3.928771019E-1
8.690897134E0,-9.818616509E-2,1.290512085E-2,-4.193377495E-1
8.695893124E0,-2.091097832E-2,2.452659607E-2,-4.221100807E-1
8.700889113E0,3.217679262E-2,7.923698425E-2,-4.346232414E-1
8.705885103E0,6.628233194E-2,9.608793259E-2,-4.378771782E-1
8.710881093E0,6.760685146E-2,1.227931976E-1,-4.318861961E-1
8.715877082E0,4.573491216E-2,1.308207512E-1,-3.882679939E-1
8.720873072E0,1.988667250E-2,1.345252991E-1,-3.310475349E-1
8.725869061E0,-3.860816360E-2,1.434359550E-1,-2.271032333E-1
8.730865051E0,-3.967705369E-2,1.525864601E-1,-5.773735046E-2
8.735861040E0,6.326824427E-3,1.664590836E-1,1.149263382E-1
8.740857030E0,6.121619046E-2,1.516504288E-1,2.766971588E-1
8.745853020E0,7.799974084E-2,1.127548218E-1,4.136800766E-1
8.750849009E0,4.323109984E-2,6.399822235E-2,5.214796066E-1
8.755844999E0,4.528462887E-4,-1.384353638E-2,5.815448761E-1
8.760840988E0,-5.005633831E-2,-1.112966537E-1,6.086864471E-1
8.765836978E0,-1.271810830E-1,-1.855134964E-1,5.842142105E-1
8.770832968E0,-2.357811034E-1,-2.463693619E-1,5.513973236E-1
8.775828957E0,-3.192096353E-1,-2.797398567E-1,5.102949142E-1
8.780824947E0,-3.545059562E-1,-3.143973351E-1,4.419937134E-1
8.785820936E0,-3.327674866E-1,-3.360853195E-1,2.944822311E-1
8.790816926E0,-2.828814089E-1,-3.351030350E-1,1.632061005E-1
8.795812915E0,-2.381990254E-1,-3.493585587E-1,3.837680817E-2
8.800808905E0,-1.702564061E-1,-3.499178886E-1,-5.650997162E-2
8.805804895E0,-1.221146286E-1,-3.223767281E-1,-1.123733521E-1
8.810800884E0,-8.419013023E-2,-2.714948654E-1,-1.296768188E-1
8.815796874E0,-9.460464120E-2,-2.162404060E-1,-1.231317520E-1
8.820792863E0,-1.008087099E-1,-1.516833305E-1,-9.307289124E-2
8.825788853E0,-7.422119379E-2,-9.214210510E-2,-7.293510437E-2
8.830784843E0,-1.488569379E-2,-6.122732162E-2,-3.419303894E-2
8.835780832E0,2.485024929E-2,-1.117086411E-2,-1.501178741E-2
8.840776822E0,6.922581792E-2,3.408288956E-2,8.552551270E-3
8.845772811E0,1.091091037E-1,6.516695023E-2,3.167343140E-2
8.850768801E0,1.685796231E-1,9.165716171E-2,2.115249634E-2
8.855764790E0,2.144422829E-1,8.039236069E-2,-8.502960205E-3
8.860760780E0,2.327825278E-1,6.483983994E-2,-5.232143402E-2
8.865756770E0,2.574278414E-1,6.412076950E-2,-1.102256775E-1
8.870752759E0,2.837229967E-1,4.495859146E-2,-1.441545486E-1
8.875748749E0,2.924410701E-1,3.120565414E-2,-8.780765533E-2
8.880744738E0,3.021836281E-1,3.209924698E-2,7.717132568E-2
8.885740728E0,2.886952758E-1,9.136676788E-3,3.026170731E-1
8.890736718E0,2.571054697E-1,-6.636190414E-2,5.502910614E-1
8.895732707E0,2.313313186E-1,-1.469159126E-1,6.825857162E-1
8.900728697E0,1.972593367E-1,-2.088761330E-1,6.530761719E-1
8.905724686E0,1.502354741E-1,-2.666130066E-1,5.295810699E-1
8.910720676E0,4.956394434E-3,-2.440638542E-1,3.745498657E-1
8.915716665E0,-1.527428031E-1,-1.844310760E-1,2.593317032E-1
8.920712655E0,-2.901820838E-1,-1.211018562E-1,9.798908234E-2
8.925708645E0,-3.842663169E-1,-8.700704575E-2,-4.759788513E-2
8.930704634E0,-4.312678576E-1,-2.940416336E-2,-1.397848129E-1
8.935700624E0,-3.707209826E-1,3.761720657E-2,-2.885231972E-1
8.940696613E0,-2.326139808E-1,9.526443481E-2,-4.983220100E-1
8.945692603E0,-8.904367685E-2,1.395416260E-1,-7.596416473E-1
8.950688593E0,-7.777446508E-2,8.077907562E-2,-9.393949509E-1
8.955684582E0,-4.065374732E-1,-3.454570770E-1,-9.959354401E-1
8.960680572E0,-7.450046539E-1,-7.465653419E-1,-9.541587830E-1
8.965676561E0,-6.422491670E-1,-5.526990891E-1,-8.767900467E-1
8.970672551E0,-3.250908852E-1,-1.867370605E-1,-6.976089478E-1
8.975668540E0,1.476365328E-2,3.115463257E-1,-6.166591644E-1
8.980664530E0,7.816749811E-2,7.935094833E-1,-6.803617477E-1
8.985660520E0,-8.432388306E-2,1.116728783E0,-8.873758316E-1
8.990656509E0,-3.503230214E-1,1.320649624E0,-1.041775227E0
8.995652499E0,-4.560475349E-1,1.345218182E0,-1.125324726E0
9.000648488E0,-4.066301584E-1,1.258989811E0,-1.119925022E0
9.005644478E0,-1.991546154E-1,1.149020195E0,-1.022006035E0
9.010640468E0,5.404752493E-2,1.120426178E0,-8.089580536E-1
9.015636457E0,8.909183741E-2,1.192279339E0,-6.342515945E-1
9.020632447E0,1.006029248E-1,1.255210876E0,-6.024794579E-1
9.025628436E0,1.355363429E-1,1.163122654E0,-7.699832916E-1
9.030624426E0,5.070939660E-2,9.610791206E-1,-8.886556625E-1
9.035620415E0,-4.455962777E-2,5.465126038E-1,-1.073244095E0
9.040616405E0,-4.227634370E-1,-2.863688469E-1,-1.243011951E0
9.045612395E0,-1.508612990E0,-3.780937195E-2,-1.117854118E0
9.050608384E0,-1.475656152E0,2.573060989E-2,-2.077169418E0
9.055604374E0,-1.292230248E0,-3.972702026E-1,-2.221704483E0
9.060600363E0,-1.138372183E0,-9.638433456E-1,-1.754643917E0
9.065596353E0,-8.850746155E-1,-1.322512150E0,-1.305257797E0
9.070592343E0,-3.744426072E-1,-1.321683645E0,-8.435015678E-1
9.075588332E0,1.158191264E-2,-1.159198046E0,-3.346214294E-1
9.080584322E0,2.404072583E-1,-8.136701584E-1,4.859600067E-1
9.085580311E0,2.140301466E-1,-4.983050823E-1,1.035816193E0
9.090576301E0,1.906131208E-1,-2.061560154E-1,1.617609978E0
9.095572290E0,4.222411513E-1,3.068351746E-2,2.370974541E0
9.100568280E0,8.822562099E-1,1.799407005E-1,3.262970924E0
9.105564270E0,1.423720121E0,2.473194599E-1,4.074043274E0
9.110560259E0,1.737627268E0,1.052737236E-1,4.550949097E0
9.115556249E0,1.620488167E0,-1.717982292E-1,4.555113792E0
9.120552238E0,1.291350842E0,-2.880234718E-1,4.091003418E0
9.125548228E0,8.153859973E-1,-3.204119205E-1,3.478734016E0
9.130544218E0,6.045038104E-1,-4.652202129E-1,2.760986328E0
9.135540207E0,5.468443036E-1,-5.455374718E-1,2.114728928E0
9.140536197E0,5.107868910E-1,-6.809411049E-1,1.348649025E0
9.145532186E0,1.832541823E-1,-7.610644102E-1,6.639089584E-1
9.150528176E0,-1.312095225E-1,-1.014802575E0,3.662872314E-2
9.155524165E0,-5.333565474E-1,-1.254258037E0,-4.519519806E-1
9.160520155E0,-7.453367710E-1,-1.497743964E0,-5.339965820E-1
9.165516145E0,-6.994700432E-1,-1.772273302E0,-1.380815506E-1
9.170512134E0,-4.672502875E-1,-2.122700214E0,4.576873779E-1
9.175508124E0,-5.408381820E-1,-2.021168470E0,2.756624222E-1
9.180504113E0,-1.119677067E0,-1.370343447E0,-2.649803162E-1
9.185500103E0,-1.646725178E0,-4.912946224E-1,-1.127611160E0
9.190496093E0,-1.771945834E0,3.511886597E-1,-2.279613018E0
9.195492082E0,-1.377791524E0,9.810075760E-1,-2.879129410E0
9.200488072E0,-5.444389582E-1,1.199906111E0,-2.969136238E0
9.205484061E0,3.918997347E-1,1.129589081E0,-2.779058456E0
9.210480051E0,1.093032002E0,9.501214027E-1,-2.366268635E0
9.215476040E0,1.420671463E0,8.611266613E-1,-1.711627960E0
9.220472030E0,1.467016220E0,9.326698780E-1,-9.583997726E-1
9.225468020E0,1.452873945E0,9.527606964E-1,-1.922798157E-1
9.230464009E0,1.522706628E0,8.860528469E-1,5.826187134E-1
9.235459999E0,1.534657598E0,7.640678883E-1,9.891643524E-1
9.240455988E0,1.491761565E0,6.569681168E-1,1.186160088E0
9.245451978E0,1.363489270E0,6.062746048E-1,1.341732979E0
9.250447968E0,1.119311810E0,6.016829014E-1,1.350970268E0
9.255443957E0,6.908280849E-1,5.237956047E-1,1.147106171E0
9.260439947E0,2.012816966E-1,4.117219448E-1,9.072313309E-1
9.265435936E0,-2.973122299E-1,1.998078823E-1,7.554807663E-1
9.270431926E0,-9.865745902E-1,-2.256603241E-1,1.026170731E0
9.275427915E0,-1.084279537E0,-4.907562733E-1,1.608158112E0
9.280423905E0,-3.753399551E-1,-5.514147282E-1,1.142384529E0
9.285419895E0,1.886449456E-1,-4.056835175E-1,1.465396881E-1
9.290415884E0,1.967073679E-1,-1.490192413E-1,-1.497325897E-1
9.295411874E0,5.358374119E-2,-1.410081387E-1,-9.651756287E-2
9.300407863E0,1.000792980E-1,-4.049777985E-1,-3.352718353E-1
9.305403853E0,3.661444187E-1,-5.417952538E-1,-8.756361008E-1
9.310399843E0,4.960848689E-1,-4.921541214E-1,-1.378283024E0
9.315395832E0,5.196709633E-1,-3.939135075E-1,-1.743253708E0
9.320391822E0,5.249856114E-1,-1.987810135E-1,-1.923222542E0
9.325387811E0,5.463989377E-1,-4.070687294E-2,-1.904192924E0
9.330383801E0,6.850602627E-1,1.563785076E-1,-1.614590645E0
9.335379790E0,1.031948090E0,4.626588821E-1,-1.049508095E0
9.340375780E0,1.350808620E0,8.999636173E-1,-2.467746735E-1
9.345371770E0,1.567682981E0,1.331932545E0,3.064575195E-1
9.350367759E0,1.561974764E0,1.627771139E0,4.007396698E-1
9.355363749E0,1.318653584E0,1.710426092E0,3.860998154E-1
9.360359738E0,1.091498613E0,1.546072006E0,2.772502899E-1
9.365355728E0,1.019701123E0,1.278122425E0,1.700563431E-1
9.370351718E0,1.021949887E0,1.007217169E0,9.319972992E-2
9.375347707E0,9.438334703E-1,8.054435253E-1,1.280126572E-1
9.380343697E0,6.448764801E-1,6.012225151E-1,1.741304398E-1
9.385339686E0,2.729616165E-1,3.616209030E-1,1.263313293E-1
9.390335676E0,1.577520370E-2,1.154470444E-1,-2.965164185E-2
9.395331665E0,-2.261139154E-1,-5.569672585E-2,-1.981744766E-1
9.400327655E0,-5.244523287E-1,-1.464169025E-1,-3.124027252E-1
9.405323645E0,-6.632680893E-1,-1.136846542E-1,-2.337484360E-1
9.410319634E0,-5.508682728E-1,-3.910374641E-2,-1.986408234E-2
9.415315624E0,-3.248664141E-1,3.390789032E-2,2.429447174E-1
9.420311613E0,-8.379352093E-2,5.238771439E-2,2.674732208E-1
9.425307603E0,2.027387619E-1,-1.191020012E-2,-3.730678558E-2
9.430303593E0,3.770484924E-1,-1.947188377E-2,-4.082918167E-1
9.435299582E0,2.809548378E-1,-7.875442505E-3,-6.591091156E-1
9.440295572E0,1.493144035E-2,-1.967477798E-2,-9.718136787E-1
9.445291561E0,-1.242300272E-1,-1.305253506E-1,-1.451912880E0
9.450287551E0,-5.028271675E-2,-2.918395996E-1,-2.023045063E0
9.455283540E0,1.650044918E-1,-3.503060341E-1,-2.446176529E0
9.460279530E0,4.399340153E-1,-2.679324150E-1,-2.482334137E0
9.465275520E0,9.715528488E-1,-3.130888939E-2,-2.069867611E0
9.470271509E0,1.272517920E0,3.527419567E-1,-1.323692322E0
9.475267499E0,8.542301655E-1,5.910854340E-1,-6.070165634E-1
9.480263488E0,3.366370201E-1,5.258646011E-1,-5.774497986E-2
9.485259478E0,1.950855255E-1,3.441116810E-1,4.159650803E-1
9.490255468E0,1.692540646E-1,9.854507446E-2,6.999483109E-1
9.495251457E0,1.608252525E-2,-2.730023861E-1,6.508131027E-1
9.500247447E0,-1.575980186E-1,-7.114953995E-1,3.192577362E-1
9.505243436E0,-2.431633472E-1,-9.278881550E-1,1.676654816E-1
9.510239426E0,-4.724502563E-1,-9.839298725E-1,3.586606979E-1
9.515235415E0,-7.270516157E-1,-1.042501688E0,4.330577850E-1
9.520231405E0,-8.792128563E-1,-1.151135683E0,4.103879929E-1
9.525227395E0,-1.083682418E0,-1.257119179E0,3.199110031E-1
9.530223384E0,-1.083145976E0,-1.317508459E0,1.381425858E-1
9.535219374E0,-8.215796947E-1,-1.256000519E0,-1.965503693E-1
9.540215363E0,-2.478497028E-1,-1.092530489E0,-6.641793251E-1
9.545211353E0,5.024013519E-1,-8.278439045E-1,-9.673118591E-1
9.550207343E0,1.217263699E0,-5.733909607E-1,-9.281396866E-1
9.555203332E0,1.781110525E0,-4.025104046E-1,-4.551143646E-1
9.560199322E0,2.312461615E0,-2.401447296E-1,3.185825348E-1
9.565195311E0,2.783167362E0,-1.690812111E-1,1.163712502E0
9.570191301E0,3.066673994E0,-2.436230183E-1,1.932037354E0
9.575187290E0,3.272102833E0,-3.928644657E-1,2.307279587E0
9.580183280E0,3.006779671E0,-7.645695210E-1,2.235654831E0
9.585179270E0,2.327137232E0,-1.199290752E0,2.084084511E0
9.590175259E0,1.544518709E0,-1.566123962E0,1.885332108E0
9.595171249E0,9.251399040E-1,-1.801397800E0,1.510277748E0
9.600167238E0,5.105824471E-1,-1.908231020E0,8.631420135E-1
9.605163228E0,1.423132420E-1,-1.932799578E0,1.778974533E-1
9.610159218E0,-2.954297066E-1,-1.959535837E0,-2.494111061E-1
9.615155207E0,-6.701385975E-1,-2.001435518E0,-3.187451363E-1
9.620151197E0,-1.030582666E0,-2.024286985E0,-2.218894958E-1
9.625147134E0,-1.295712471E0,-1.994165182E0,-1.840338707E-1
9.630143072E0,-1.456228733E0,-1.920526981E0,-2.673707008E-1
9.635139009E0,-1.669476509E0,-1.783955336E0,-3.909959793E-1
9.640134947E0,-1.749092340E0,-1.613098383E0,-4.353270531E-1
9.645130884E0,-1.662874222E0,-1.431907654E0,-1.799502373E-1
9.650126822E0,-1.359583139E0,-1.269662142E0,4.521918297E-1
9.655122759E0,-6.815643311E-1,-1.142480612E0,1.260711193E0
9.660118697E0,1.869611740E-1,-1.009828091E0,1.900964260E0
9.665114634E0,8.387918472E-1,-8.166220188E-1,2.113719463E0
9.670110572E0,1.277029514E0,-6.219165325E-1,2.233421803E0
9.675106509E0,1.479152203E0,-4.936785698E-1,2.542099476E0
9.680102447E0,1.415955067E0,-4.995751381E-1,2.911159039E0
9.685098384E0,1.100026131E0,-5.440883636E-1,3.131413460E0
9.690094322E0,5.154986382E-1,-6.079001427E-1,3.127528191E0
9.695090259E0,1.167182922E-1,-6.712670326E-1,3.007761955E0
9.700086197E0,-1.773247719E-1,-7.777292728E-1,2.703522205E0
9.705082134E0,-3.314328194E-1,-9.379723072E-1,2.006220818E0
9.710078072E0,-8.792734146E-2,-8.357429504E-1,1.372545242E0
9.715074009E0,2.825541496E-1,-3.742837906E-1,1.027859211E0
9.720069947E0,3.604545593E-1,5.079174042E-2,5.568552017E-1
9.725065884E0,2.466216087E-1,1.737432480E-1,-2.901906967E-1
9.730061822E0,6.384897232E-2,1.928696632E-1,-1.114179134E0
9.735057759E0,-7.697439194E-2,2.770690918E-1,-1.534063339E0
9.740053697E0,-1.534910202E-1,4.271087646E-1,-1.655267715E0
9.745049634E0,-2.202324867E-1,5.811772346E-1,-1.663877964E0
9.750045572E0,-3.012146950E-1,6.869654655E-1,-1.579422951E0
9.755041509E0,-3.475370407E-1,6.823601723E-1,-1.383724689E0
9.760037499E0,-4.208884239E-1,6.293454170E-1,-1.129782677E0
9.765033488E0,-4.832301140E-1,5.324187279E-1,-8.986616135E-1
9.770029478E0,-4.011220932E-1,4.197964668E-1,-7.423353195E-1
9.775025468E0,-2.942728996E-1,2.958273888E-1,-6.509079933E-1
9.780021457E0,-1.524209976E-1,2.270731926E-1,-6.628260612E-1
9.785017447E0,2.989101410E-2,2.371363640E-1,-7.065982819E-1
9.790013436E0,1.950836182E-1,2.779216766E-1,-6.146140099E-1
9.795009426E0,2.748317719E-1,3.538503647E-1,-4.097671509E-1
9.800005415E0,3.257050514E-1,4.023184776E-1,-2.873601913E-1
9.805001405E0,2.764105797E-1,4.569206238E-1,-2.046022415E-1
9.809997395E0,1.415805817E-1,5.032334328E-1,-8.479118347E-3
9.814993384E0,6.561756134E-3,4.980430603E-1,3.111557961E-1
9.819989374E0,5.686616898E-2,3.215842247E-1,6.067957878E-1
9.824985363E0,3.829169273E-1,-5.081081390E-2,8.410692215E-1
9.829981353E0,7.078533173E-1,-3.954987526E-1,1.134015083E0
9.834977343E0,7.257928848E-1,-4.462690353E-1,1.558321476E0
9.839973332E0,6.325645447E-1,-3.051686287E-1,1.995659828E0
9.844969322E0,5.949349403E-1,-2.223749161E-1,2.280147552E0
9.849965311E0,5.945382118E-1,-2.465538979E-1,2.326070309E0
9.854961301E0,6.228570938E-1,-2.532830238E-1,2.324402332E0
9.859957290E0,5.802927017E-1,-2.227811813E-1,2.259861946E0
9.864953280E0,4.718961716E-1,-1.731290817E-1,2.059961796E0
9.869949270E0,3.984475136E-1,-1.650080681E-1,1.642320156E0
9.874945259E0,4.279022217E-1,-1.871552467E-1,1.009999275E0
9.879941249E0,6.181879044E-1,-1.570711136E-1,4.296755791E-1
9.884937238E0,8.015737534E-1,-7.410669327E-2,1.255679131E-1
9.889933228E0,7.189116478E-1,-8.621215820E-2,-1.797046661E-1
9.894929218E0,6.470923424E-1,-1.877932549E-1,-3.809218407E-1
9.899925207E0,5.565462112E-1,-3.069128990E-1,-4.011621475E-1
9.904921197E0,8.177399635E-1,-3.165831566E-1,-1.018209457E-1
9.909917186E0,1.293613911E0,-1.303400993E-1,4.758219719E-1
